"subj_idx","trial","desWorld","response","rt"
"2","X1",1,1,3.288
"3","X1",1,1,5.449
"4","X1",0,0,30.577
"6","X1",1,1,5.284
"7","X1",0,1,4.137
"8","X1",1,1,4.84
"9","X1",0,0,11.54
"11","X1",0,1,3.912
"12","X1",1,1,14.546
"14","X1",0,0,3.554
"15","X1",0,0,7.253
"16","X1",0,0,9.296
"17","X1",0,1,4.056
"18","X1",0,1,11.416
"19","X1",0,1,7.232
"20","X1",1,1,11.52
"22","X1",0,0,3.697
"24","X1",0,0,9.324
"25","X1",1,1,2.929
"26","X1",1,1,15.353
"27","X1",0,0,8.873
"28","X1",0,0,5.414
"29","X1",1,1,10.893
"31","X1",0,0,7.353
"32","X1",0,0,16.976
"33","X1",0,0,8.167
"34","X1",0,1,4.48
"36","X1",1,1,3.431
"37","X1",0,0,8.619
"38","X1",1,1,4.024
"39","X1",1,0,6.841
"40","X1",1,1,6.087
"41","X1",0,1,12.464
"42","X1",0,0,3.845
"43","X1",1,1,1.815
"44","X1",1,1,2.044
"45","X1",1,1,21.945
"46","X1",1,1,8.838
"47","X1",1,0,6.38
"48","X1",0,0,11.279
"49","X1",0,0,11.991
"50","X1",0,1,5.579
"51","X1",0,1,30.696
"53","X1",0,0,4.377
"54","X1",1,1,5.665
"55","X1",0,0,12.446
"56","X1",0,1,27.322
"58","X1",0,0,8.462
"59","X1",1,1,4.267
"60","X1",1,1,2.021
"61","X1",1,1,2.913
"62","X1",1,1,9.561
"63","X1",1,1,18.944
"64","X1",1,1,5.721
"65","X1",0,0,8.066
"66","X1",0,1,1.853
"67","X1",1,1,4.465
"68","X1",0,0,1.408
"69","X1",1,1,9.552
"70","X1",0,0,3.913
"71","X1",0,0,3.253
"72","X1",1,1,4.128
"73","X1",1,1,11.879
"74","X1",1,1,3.479
"75","X1",0,0,11.119
"76","X1",1,1,13.344
"78","X1",0,1,2.016
"79","X1",0,0,0.625
"80","X1",0,0,6.054
"81","X1",0,0,30.888
"82","X1",1,1,5.651
"83","X1",1,1,8.568
"84","X1",1,1,4.919
"85","X1",1,1,4.995
"86","X1",1,1,4.98
"88","X1",1,1,3.4
"89","X1",1,1,8.431
"90","X1",1,1,4.658
"92","X1",0,1,9.24
"93","X1",0,0,17.508
"94","X1",1,0,4.862
"95","X1",1,1,2.883
"96","X1",1,0,6.916
"97","X1",0,1,10.151
"98","X1",1,1,11.182
"99","X1",1,1,6.383
"100","X1",0,0,5.45
"2","X2",0,1,7.164
"3","X2",0,0,8.368
"4","X2",0,0,10.812
"6","X2",0,0,4.465
"7","X2",0,0,1.271
"8","X2",0,0,2.567
"9","X2",0,1,12.389
"11","X2",0,0,7.173
"12","X2",0,0,4.081
"13","X2",1,1,16.523
"14","X2",1,1,5.592
"15","X2",0,0,8.915
"16","X2",1,0,10.094
"17","X2",1,1,15.77
"18","X2",0,0,7.528
"19","X2",0,1,10.344
"20","X2",0,0,19.616
"21","X2",1,0,8.482
"22","X2",0,0,3.12
"23","X2",0,0,12.038
"24","X2",0,1,14.408
"25","X2",0,0,1.905
"26","X2",1,0,18.221
"27","X2",1,1,9.023
"28","X2",1,1,5.33
"29","X2",1,1,31.639
"30","X2",0,0,8.615
"31","X2",0,0,15.24
"32","X2",0,0,11.328
"33","X2",1,1,6.05
"34","X2",0,0,3.35
"36","X2",1,0,4.323
"37","X2",1,1,11.219
"38","X2",1,1,7.803
"39","X2",1,1,5.382
"40","X2",0,0,7.585
"41","X2",0,0,13.636
"42","X2",0,1,15.534
"43","X2",1,0,4.615
"44","X2",0,0,3.739
"45","X2",0,1,54.32
"46","X2",1,1,6.535
"47","X2",0,1,3.693
"48","X2",0,0,2.658
"49","X2",1,1,13.736
"50","X2",1,0,4.102
"51","X2",0,0,15.18
"53","X2",0,0,9.992
"54","X2",1,0,3.759
"55","X2",1,1,5.406
"56","X2",0,0,22.251
"57","X2",1,1,3.701
"58","X2",1,1,4.528
"59","X2",1,1,20.4
"60","X2",1,0,3.626
"61","X2",0,1,3.455
"62","X2",0,1,13.496
"63","X2",0,0,12.281
"64","X2",0,0,5.519
"65","X2",0,0,3.432
"66","X2",1,1,2.489
"67","X2",0,1,7.786
"68","X2",0,1,1.663
"69","X2",1,1,6.991
"70","X2",1,1,8.864
"71","X2",1,1,4.306
"72","X2",0,0,6.359
"73","X2",1,1,11.648
"74","X2",1,0,7.909
"75","X2",0,0,9.584
"76","X2",0,0,6.441
"78","X2",1,1,2.539
"79","X2",0,1,0.597
"80","X2",0,1,8.776
"81","X2",1,1,6.951
"82","X2",0,1,4.912
"83","X2",0,0,5.984
"84","X2",0,0,5.912
"85","X2",1,1,4.394
"86","X2",0,0,5.988
"89","X2",0,0,5.574
"90","X2",0,0,3.479
"91","X2",1,1,11.996
"92","X2",1,0,8.6
"93","X2",0,0,22.074
"94","X2",1,1,2.79
"95","X2",1,1,4.639
"96","X2",0,0,8.461
"97","X2",0,1,22.704
"98","X2",1,1,7.927
"99","X2",1,1,7.608
"100","X2",0,0,4.257
"2","X3",1,1,2.896
"3","X3",0,0,3.77
"4","X3",1,1,6.272
"6","X3",0,0,2.168
"7","X3",0,0,1.712
"8","X3",0,0,5.241
"9","X3",0,1,4.558
"11","X3",1,1,3.436
"12","X3",0,0,13.169
"13","X3",0,0,6.985
"14","X3",1,1,6.22
"15","X3",1,0,4.673
"16","X3",1,1,7.336
"17","X3",0,0,6.242
"18","X3",1,0,13.523
"19","X3",0,0,7.664
"20","X3",1,0,5.324
"21","X3",1,1,5.132
"22","X3",1,1,3.736
"23","X3",1,1,6.773
"25","X3",1,1,4.288
"26","X3",0,0,5.003
"27","X3",1,1,13.493
"28","X3",1,1,3.655
"29","X3",0,0,19.359
"31","X3",0,0,14.881
"32","X3",1,1,5.057
"33","X3",1,1,10.949
"34","X3",0,0,8.429
"36","X3",0,1,1.662
"37","X3",0,0,8.304
"38","X3",0,0,12.975
"39","X3",1,0,9.316
"40","X3",1,1,7.545
"41","X3",0,0,7.176
"42","X3",0,0,20.625
"43","X3",1,1,2.864
"44","X3",0,0,1.954
"45","X3",1,1,15.791
"46","X3",0,0,11.354
"47","X3",1,1,6.24
"48","X3",0,0,5.616
"49","X3",1,0,11.392
"50","X3",1,1,7.854
"51","X3",1,1,18.432
"53","X3",1,1,5.777
"54","X3",0,1,2.991
"55","X3",0,0,12.52
"56","X3",1,1,17.796
"57","X3",0,0,14.083
"58","X3",1,1,7.513
"59","X3",1,1,8.937
"60","X3",1,1,4.53
"61","X3",1,0,3.449
"62","X3",1,1,14.553
"63","X3",0,0,5.768
"64","X3",1,1,4.567
"65","X3",1,1,4.551
"66","X3",1,1,2.958
"67","X3",1,1,7.278
"68","X3",0,0,1.279
"69","X3",1,1,7.983
"70","X3",1,1,5.928
"71","X3",1,0,2.128
"72","X3",0,0,5.96
"73","X3",1,1,9.567
"74","X3",1,1,10.024
"75","X3",0,1,11.728
"76","X3",1,1,10.695
"78","X3",1,1,2.44
"79","X3",1,0,0.86
"80","X3",1,0,8.96
"81","X3",1,1,8.736
"82","X3",0,0,4.663
"83","X3",1,1,10.384
"84","X3",1,1,11.735
"85","X3",1,1,7.125
"86","X3",1,0,7.738
"88","X3",1,1,2.946
"89","X3",1,1,4.395
"90","X3",0,0,2.675
"91","X3",0,0,12.376
"92","X3",0,0,10.529
"93","X3",1,0,11.965
"94","X3",1,1,2.813
"95","X3",1,1,6.331
"96","X3",0,0,5.704
"97","X3",1,0,16.16
"98","X3",0,0,10.046
"99","X3",1,1,9.388
"100","X3",0,1,6.239
"2","X4",0,0,3.812
"3","X4",1,1,3.984
"4","X4",0,0,12.493
"6","X4",1,1,3.853
"7","X4",0,0,1.352
"8","X4",0,0,3.584
"9","X4",1,1,3.803
"11","X4",0,0,6.857
"12","X4",0,0,6.863
"13","X4",0,0,11.198
"14","X4",1,1,4.024
"15","X4",0,0,11.083
"16","X4",0,0,8.88
"17","X4",1,1,6.058
"18","X4",0,0,16.926
"19","X4",1,1,4.793
"20","X4",1,1,3.534
"21","X4",1,1,8.98
"22","X4",1,0,9.608
"23","X4",0,0,7.803
"24","X4",1,0,13.708
"25","X4",1,1,6.32
"26","X4",0,0,11.51
"27","X4",1,1,6.72
"28","X4",0,0,6.13
"29","X4",1,1,11.828
"30","X4",0,0,1.861
"31","X4",0,0,31.449
"32","X4",0,1,9.087
"33","X4",0,1,15.373
"34","X4",1,1,1.944
"36","X4",1,0,2.731
"37","X4",1,1,3.641
"38","X4",0,0,10.184
"39","X4",1,1,8.886
"40","X4",0,0,7.242
"42","X4",1,1,31.474
"43","X4",0,1,6.831
"44","X4",0,1,1.49
"45","X4",0,0,16.448
"46","X4",0,0,22.145
"47","X4",1,1,10.547
"48","X4",0,0,9.48
"49","X4",0,0,11.48
"50","X4",0,0,7.152
"51","X4",1,0,18.34
"53","X4",0,1,10.287
"54","X4",0,0,2.864
"55","X4",1,1,7.636
"56","X4",1,1,18.821
"57","X4",0,1,14.068
"58","X4",0,0,8.965
"59","X4",1,1,8.128
"60","X4",0,0,3.734
"61","X4",1,1,2.945
"62","X4",0,0,11.512
"63","X4",0,0,6.029
"64","X4",1,1,4.908
"65","X4",1,1,4.767
"66","X4",1,1,5.046
"67","X4",1,0,3.197
"68","X4",0,0,2.039
"69","X4",1,1,12.744
"70","X4",0,0,6.048
"71","X4",1,0,2.774
"72","X4",0,0,5.529
"73","X4",0,0,7.928
"74","X4",1,1,5.823
"75","X4",1,1,4.607
"76","X4",0,0,12.648
"78","X4",0,0,2.087
"79","X4",0,0,0.922
"80","X4",0,0,7.216
"81","X4",0,0,18.407
"82","X4",0,0,8.626
"83","X4",0,0,5.505
"84","X4",1,1,6.583
"85","X4",1,1,4.574
"86","X4",1,1,8.845
"88","X4",0,0,1.948
"89","X4",0,0,11.101
"90","X4",1,0,2.217
"92","X4",0,1,14.315
"93","X4",1,1,6.631
"94","X4",0,0,7.458
"95","X4",0,1,7.974
"96","X4",1,1,5.838
"97","X4",1,1,12.864
"98","X4",1,1,9.315
"99","X4",1,0,4.913
"100","X4",0,0,4.281
"2","X5",1,1,1.596
"3","X5",0,0,4.404
"4","X5",0,0,9.07
"6","X5",0,0,2.936
"7","X5",0,0,1.993
"8","X5",0,0,4.328
"9","X5",1,1,10.093
"11","X5",0,0,6.374
"12","X5",0,0,9.92
"13","X5",0,1,13.037
"14","X5",1,1,8.488
"15","X5",1,1,7.949
"16","X5",0,0,6.968
"17","X5",0,0,3.941
"18","X5",1,1,4.874
"19","X5",1,1,4.792
"20","X5",0,0,2.376
"21","X5",1,1,6.127
"22","X5",1,1,3.848
"23","X5",0,0,12.347
"24","X5",0,0,7.275
"25","X5",1,0,2.839
"27","X5",1,1,5.983
"28","X5",1,0,9.215
"29","X5",1,1,11.702
"30","X5",1,1,2.838
"31","X5",0,0,21.561
"32","X5",0,0,2.703
"33","X5",1,1,20.967
"34","X5",1,1,3.033
"36","X5",0,1,1.086
"37","X5",1,1,6.675
"38","X5",0,1,11.998
"39","X5",0,0,7.084
"40","X5",1,0,6.939
"41","X5",1,1,15.175
"42","X5",1,1,17.215
"43","X5",0,1,2.471
"44","X5",0,1,1.514
"45","X5",0,0,37.241
"46","X5",0,0,6.568
"47","X5",0,1,4.426
"48","X5",0,0,2.585
"49","X5",0,0,16.512
"50","X5",0,1,5.811
"51","X5",1,1,12.176
"53","X5",1,1,8.208
"54","X5",1,0,2.736
"55","X5",1,1,3.701
"56","X5",1,1,14.998
"57","X5",1,1,1.927
"59","X5",0,0,5.584
"60","X5",0,1,8.112
"61","X5",0,0,4.168
"62","X5",0,0,6.151
"63","X5",0,0,7.214
"64","X5",1,1,5.96
"65","X5",0,0,6.847
"66","X5",0,1,2.749
"67","X5",1,1,4.251
"68","X5",0,1,1.296
"69","X5",0,0,15.049
"70","X5",1,0,8.352
"71","X5",0,0,4.33
"72","X5",0,1,2.878
"73","X5",1,1,10.087
"74","X5",0,0,7.895
"75","X5",0,1,12.033
"76","X5",1,1,5.8
"78","X5",1,1,2.044
"79","X5",1,1,1.6
"80","X5",0,0,11.489
"81","X5",0,1,6.96
"82","X5",0,1,6.262
"83","X5",1,1,19.35
"84","X5",1,1,6.44
"85","X5",0,0,7.83
"86","X5",0,0,4.273
"89","X5",0,0,7.391
"90","X5",0,0,3.674
"91","X5",1,1,18.878
"92","X5",0,0,8.152
"93","X5",0,0,17.04
"94","X5",0,0,3.811
"95","X5",0,0,1.675
"96","X5",0,0,8.604
"97","X5",1,1,15.343
"98","X5",0,1,9.734
"99","X5",1,1,9.372
"100","X5",0,0,3.891
"2","X6",1,1,2.801
"3","X6",0,0,4.487
"4","X6",1,1,4.452
"6","X6",1,1,2.704
"7","X6",1,1,1.343
"8","X6",1,1,3.809
"9","X6",1,1,4.243
"11","X6",1,1,4.885
"12","X6",0,0,7.332
"13","X6",1,1,6.956
"14","X6",0,0,5.878
"15","X6",0,0,10.669
"16","X6",1,0,9
"17","X6",1,0,13.359
"18","X6",0,0,7.137
"19","X6",1,0,7.276
"20","X6",0,1,3.61
"21","X6",1,1,12.532
"22","X6",1,0,3.049
"23","X6",0,1,11.092
"24","X6",0,0,18.718
"25","X6",0,0,2.711
"26","X6",1,1,6.771
"27","X6",1,1,5.471
"28","X6",1,0,6.554
"29","X6",0,1,10.188
"30","X6",1,1,9.771
"31","X6",0,0,9.089
"32","X6",0,1,2.881
"33","X6",0,0,11.886
"34","X6",1,1,3.449
"36","X6",0,0,2.676
"37","X6",0,0,8.548
"38","X6",1,1,7.129
"39","X6",0,1,16.689
"40","X6",0,1,8.751
"41","X6",0,0,18.001
"42","X6",1,1,28.499
"43","X6",1,1,7.336
"44","X6",0,0,1.229
"45","X6",1,1,14.6
"46","X6",1,1,12.742
"47","X6",0,0,4.372
"48","X6",0,1,5.744
"49","X6",0,0,12.56
"50","X6",0,0,8.12
"51","X6",0,0,20.215
"53","X6",1,1,2.871
"54","X6",0,0,3.383
"55","X6",1,1,18.312
"56","X6",0,0,33.673
"58","X6",0,0,18.449
"59","X6",1,1,7.432
"60","X6",1,1,2.185
"61","X6",0,0,5.358
"62","X6",1,1,5.928
"63","X6",1,1,6.858
"64","X6",0,0,6.029
"65","X6",0,1,2.905
"66","X6",0,1,3.82
"67","X6",1,0,2.922
"68","X6",1,0,1.944
"69","X6",1,1,5.247
"70","X6",0,0,9.703
"71","X6",1,1,4.85
"72","X6",1,1,9.712
"74","X6",1,0,5.808
"75","X6",0,0,4.613
"76","X6",1,0,10.529
"78","X6",0,0,1.827
"79","X6",0,0,0.619
"80","X6",1,1,7.232
"81","X6",0,1,24.4
"82","X6",1,1,7.937
"83","X6",0,0,4.62
"84","X6",1,0,6.687
"85","X6",0,0,7.971
"86","X6",1,0,5.013
"88","X6",1,1,3.748
"89","X6",1,0,17.171
"90","X6",0,1,2.352
"92","X6",1,1,7.384
"93","X6",0,1,15.449
"94","X6",1,1,9.731
"95","X6",0,0,5.6
"96","X6",1,1,4.622
"97","X6",0,0,8.312
"98","X6",0,1,4.711
"99","X6",1,0,12.014
"100","X6",1,1,4.963
"2","X7",1,1,2.648
"3","X7",1,0,6.758
"4","X7",1,1,2.961
"6","X7",1,1,4.838
"7","X7",0,1,1.969
"8","X7",0,0,2.568
"9","X7",1,1,5.389
"11","X7",1,1,1.696
"12","X7",1,1,9.522
"14","X7",0,0,6.167
"15","X7",0,0,15.433
"16","X7",1,1,6.936
"17","X7",0,1,3.118
"18","X7",0,1,5.814
"19","X7",0,0,3.576
"20","X7",1,1,2.14
"21","X7",0,1,9.18
"22","X7",0,0,4.816
"23","X7",1,1,14.802
"24","X7",0,0,23.179
"25","X7",0,0,2.678
"26","X7",1,1,9.178
"27","X7",1,1,4.895
"28","X7",1,1,7.713
"29","X7",0,0,8.456
"30","X7",0,0,3.903
"31","X7",0,0,11.652
"32","X7",1,1,2.064
"33","X7",0,0,11.053
"34","X7",1,0,8.888
"36","X7",1,1,0.577
"37","X7",0,0,2.329
"38","X7",0,0,13.977
"39","X7",1,0,14.975
"40","X7",0,1,9.369
"41","X7",1,0,20.706
"42","X7",1,1,18.659
"43","X7",0,0,1.951
"44","X7",0,0,1.402
"45","X7",1,1,37.751
"46","X7",1,1,7.178
"47","X7",1,1,10.42
"48","X7",0,0,19.032
"49","X7",1,1,11.416
"50","X7",1,1,5.578
"51","X7",1,1,37.615
"53","X7",0,0,3.96
"54","X7",0,1,3.401
"55","X7",0,0,8.635
"56","X7",1,0,10.694
"57","X7",1,1,9.189
"58","X7",0,0,6.191
"59","X7",0,0,4.104
"60","X7",1,0,2.648
"61","X7",0,0,2.434
"62","X7",0,0,4.985
"63","X7",1,1,10.015
"64","X7",0,1,6.628
"65","X7",1,1,1.864
"66","X7",0,1,4.94
"67","X7",0,0,4.222
"68","X7",0,1,2.896
"69","X7",1,0,15.712
"70","X7",0,1,10.953
"71","X7",0,1,4.989
"72","X7",1,1,6.831
"73","X7",0,0,7.64
"74","X7",0,0,16.785
"75","X7",0,1,6.561
"76","X7",1,1,3.249
"78","X7",0,0,2.248
"79","X7",1,1,1.488
"80","X7",0,0,4.354
"81","X7",1,1,19.921
"82","X7",0,0,16.151
"83","X7",1,1,3.514
"84","X7",0,0,6.27
"85","X7",0,1,4.365
"86","X7",0,0,5.439
"88","X7",0,1,1.708
"89","X7",0,1,14.6
"90","X7",0,0,3.329
"91","X7",0,0,13.769
"92","X7",0,0,20.968
"93","X7",0,0,14.296
"94","X7",1,1,3.387
"95","X7",1,1,2.72
"96","X7",1,1,6.105
"97","X7",0,0,8.36
"98","X7",0,1,8.187
"99","X7",1,0,6.283
"100","X7",1,0,3.38
"2","X8",1,0,3.936
"3","X8",1,0,4.977
"4","X8",0,0,5.675
"6","X8",1,1,2.248
"7","X8",1,0,2.12
"8","X8",1,0,3.215
"9","X8",1,1,5.291
"11","X8",0,0,7.048
"12","X8",0,0,4.004
"14","X8",1,1,4.153
"15","X8",0,0,6.233
"16","X8",0,0,5.583
"17","X8",1,1,16.303
"18","X8",1,1,3.548
"19","X8",0,0,8.032
"20","X8",1,1,5.341
"21","X8",1,1,9.264
"22","X8",0,0,4.136
"23","X8",1,1,11.959
"24","X8",1,1,7.232
"25","X8",0,0,3.225
"26","X8",1,1,4.965
"27","X8",0,1,16.656
"28","X8",0,0,7.192
"29","X8",1,1,14.372
"30","X8",1,0,9.489
"31","X8",1,1,3.002
"32","X8",1,1,2.897
"33","X8",0,0,16.88
"34","X8",0,0,1.872
"36","X8",0,0,2.187
"37","X8",1,1,4.727
"38","X8",0,1,16.209
"39","X8",1,1,4.605
"40","X8",0,1,9.314
"41","X8",1,1,9.184
"42","X8",0,1,18.905
"43","X8",0,1,3.945
"44","X8",0,1,1.074
"45","X8",1,1,22.312
"46","X8",0,0,6.791
"47","X8",0,0,7.87
"48","X8",1,1,18.311
"49","X8",1,0,15.904
"50","X8",0,1,5.024
"53","X8",1,1,5.425
"54","X8",0,0,5.574
"55","X8",0,0,8.014
"56","X8",1,1,53.455
"57","X8",0,0,9.433
"58","X8",0,0,4.336
"59","X8",0,1,11.472
"60","X8",0,0,4.739
"61","X8",0,1,2.673
"62","X8",0,0,6.271
"63","X8",0,1,12.544
"64","X8",1,1,7.866
"65","X8",0,1,3.17
"66","X8",1,0,5.505
"67","X8",0,1,6.756
"68","X8",1,0,3.567
"69","X8",0,0,11.159
"70","X8",0,1,10.023
"71","X8",0,0,3.204
"72","X8",0,0,7.575
"73","X8",0,0,6.944
"74","X8",1,1,4.656
"75","X8",1,0,5.889
"76","X8",1,1,11.144
"78","X8",1,1,1.976
"79","X8",0,0,2.073
"80","X8",0,1,13.136
"81","X8",0,0,5.927
"82","X8",0,0,9.463
"83","X8",1,1,3.5
"84","X8",1,1,15.991
"85","X8",1,1,11.155
"86","X8",1,1,5.576
"88","X8",0,0,2.313
"89","X8",0,0,3.548
"90","X8",0,0,2.183
"92","X8",0,0,7.992
"93","X8",1,1,4.234
"94","X8",0,0,3.383
"95","X8",0,0,6.376
"96","X8",0,0,6.931
"97","X8",0,0,8.112
"98","X8",1,1,6.44
"99","X8",0,0,10.487
"100","X8",1,1,5.096
"2","X9",1,1,4.732
"3","X9",1,1,7.209
"4","X9",1,1,6.459
"6","X9",1,1,2.784
"7","X9",1,1,4.112
"8","X9",1,1,2.367
"9","X9",0,1,7.919
"11","X9",0,1,4.532
"12","X9",1,1,5.904
"13","X9",0,0,9.718
"14","X9",1,1,2.557
"15","X9",1,1,2.708
"16","X9",0,0,5.913
"17","X9",0,0,2.744
"18","X9",0,0,20.222
"19","X9",1,0,8.968
"20","X9",1,1,4.334
"21","X9",1,1,2.485
"22","X9",0,0,5.864
"24","X9",0,1,15.355
"25","X9",1,1,2.952
"26","X9",0,0,11.338
"27","X9",1,1,7.856
"28","X9",1,0,6.774
"29","X9",0,0,13.509
"31","X9",1,0,8.831
"32","X9",1,1,4.255
"33","X9",1,0,19.867
"34","X9",0,0,6.889
"36","X9",0,0,2.546
"37","X9",1,1,6.763
"38","X9",1,0,9.314
"39","X9",0,0,5.391
"40","X9",1,1,11.522
"41","X9",1,1,8.567
"42","X9",1,1,10.843
"43","X9",1,0,2.007
"44","X9",1,1,1.533
"45","X9",1,1,23.712
"46","X9",0,0,10.399
"47","X9",1,1,6.728
"48","X9",0,0,7.751
"49","X9",1,0,20.312
"50","X9",1,1,3.709
"51","X9",0,0,27.224
"53","X9",0,1,4.569
"54","X9",1,1,6.376
"55","X9",1,1,10.097
"56","X9",0,0,23.275
"57","X9",1,1,4.875
"58","X9",0,1,4.676
"59","X9",0,0,12.568
"60","X9",1,1,2.041
"61","X9",0,0,5.537
"62","X9",1,1,9.903
"63","X9",1,1,4.633
"64","X9",1,0,10.307
"65","X9",1,1,2.642
"66","X9",1,1,2.334
"67","X9",1,0,2.225
"68","X9",1,1,3.432
"69","X9",1,1,5.264
"70","X9",0,0,4.447
"71","X9",1,1,4.925
"72","X9",0,0,9.095
"73","X9",1,1,5.807
"74","X9",1,1,13.607
"75","X9",0,0,12.08
"76","X9",0,1,4.903
"78","X9",1,1,2.276
"80","X9",1,1,4.816
"81","X9",1,1,8.328
"82","X9",0,0,5.475
"83","X9",0,1,4.264
"84","X9",0,1,6.519
"85","X9",1,0,10.018
"86","X9",0,1,8.603
"88","X9",1,1,1.702
"89","X9",1,1,8.656
"90","X9",0,1,3.12
"91","X9",0,0,13.667
"92","X9",1,1,4.216
"93","X9",0,0,5.841
"94","X9",1,1,2.736
"95","X9",0,1,3.137
"96","X9",1,1,8.133
"97","X9",0,0,11.359
"98","X9",1,1,2.641
"99","X9",0,0,8.382
"100","X9",1,0,4.928
"2","X10",1,0,1.832
"3","X10",1,1,3.197
"4","X10",0,0,2.609
"6","X10",1,1,4.654
"7","X10",1,0,1.729
"8","X10",0,0,3.015
"9","X10",1,1,10.951
"11","X10",1,1,1.36
"12","X10",0,0,5.449
"14","X10",1,1,3.876
"15","X10",1,0,8.236
"16","X10",1,1,17.72
"17","X10",1,1,5.418
"18","X10",0,0,11.018
"19","X10",1,1,3.112
"20","X10",0,0,4.235
"21","X10",1,1,3.762
"22","X10",1,1,5.408
"23","X10",0,0,36.671
"24","X10",1,1,16.353
"25","X10",1,1,2.345
"26","X10",0,0,13.46
"27","X10",1,1,15.728
"28","X10",1,1,6.555
"29","X10",0,0,14.675
"30","X10",0,0,1.774
"31","X10",1,1,4.117
"32","X10",1,1,10.576
"33","X10",0,0,11.452
"34","X10",0,0,2.48
"36","X10",0,1,1.402
"37","X10",0,1,2.573
"38","X10",1,1,6.011
"39","X10",1,1,3.388
"40","X10",1,0,13.476
"41","X10",0,0,14.596
"42","X10",0,0,12.56
"43","X10",0,1,1.713
"44","X10",0,0,1.215
"45","X10",0,0,27.665
"46","X10",0,0,3.092
"47","X10",0,0,2.437
"48","X10",1,1,2.248
"49","X10",1,1,6.503
"50","X10",1,1,5.612
"51","X10",0,0,30.024
"53","X10",0,0,7.463
"54","X10",1,1,4.08
"55","X10",0,0,12.457
"56","X10",0,0,7.847
"57","X10",1,1,8.513
"58","X10",1,1,9.807
"59","X10",0,0,6.064
"60","X10",0,1,2.359
"61","X10",0,0,6.624
"62","X10",1,1,6.559
"63","X10",1,1,5.789
"64","X10",0,1,5.625
"65","X10",1,1,2.704
"66","X10",0,1,3.283
"67","X10",0,0,3.341
"68","X10",1,1,3.832
"69","X10",0,0,6.352
"70","X10",1,1,6.007
"71","X10",0,0,9.388
"72","X10",1,1,9.286
"73","X10",0,0,3.904
"74","X10",1,1,8.67
"75","X10",1,1,3.747
"76","X10",0,0,5.327
"78","X10",1,1,2.012
"79","X10",1,1,2.278
"80","X10",0,0,6.598
"81","X10",0,0,8.513
"82","X10",0,0,5.626
"83","X10",1,1,5.992
"84","X10",1,1,17.046
"85","X10",0,0,3.494
"86","X10",0,1,8.394
"88","X10",1,1,5.366
"89","X10",1,1,6.338
"90","X10",1,1,2.163
"91","X10",0,1,17.912
"92","X10",1,0,13.091
"93","X10",1,1,17.777
"94","X10",0,0,1.483
"95","X10",0,1,6.389
"96","X10",0,0,5.274
"97","X10",0,0,17.408
"98","X10",0,1,10.007
"99","X10",1,1,4.841
"100","X10",0,0,4.38
"2","X11",1,1,1.227
"3","X11",0,1,5.608
"4","X11",1,1,2.48
"6","X11",0,0,9.251
"7","X11",0,0,2.456
"8","X11",1,0,2.568
"9","X11",1,1,5.627
"11","X11",0,1,1.464
"12","X11",0,0,7.256
"13","X11",1,1,10.353
"14","X11",1,1,1.756
"16","X11",1,1,5.959
"17","X11",0,0,3.774
"18","X11",1,1,5.52
"19","X11",0,0,3.608
"20","X11",1,1,11.431
"21","X11",1,1,9.552
"22","X11",1,1,3.233
"23","X11",1,1,11.751
"24","X11",1,1,13.824
"25","X11",0,0,1.824
"27","X11",1,1,5.295
"28","X11",1,1,3.385
"29","X11",1,1,16.706
"30","X11",1,0,4.017
"31","X11",0,0,7.984
"32","X11",1,1,2.72
"33","X11",1,1,14.57
"34","X11",0,0,4.503
"36","X11",1,1,1.047
"37","X11",0,0,6.717
"38","X11",1,1,14.966
"39","X11",0,0,5.268
"40","X11",0,0,7.269
"41","X11",0,0,10.961
"42","X11",0,0,22.3
"43","X11",1,1,1.439
"44","X11",0,0,1.994
"45","X11",0,0,18.961
"46","X11",1,1,14.008
"47","X11",1,0,3.873
"48","X11",1,1,2.435
"49","X11",0,1,9.808
"50","X11",1,1,3.176
"51","X11",0,0,23.739
"53","X11",1,1,5.031
"54","X11",1,1,2.852
"55","X11",1,0,4.566
"56","X11",0,0,16.085
"57","X11",0,0,11.87
"58","X11",0,0,7.646
"59","X11",1,1,7.672
"60","X11",1,1,5.461
"61","X11",1,1,2.848
"62","X11",0,0,4.968
"63","X11",0,1,5.751
"64","X11",1,1,6.269
"65","X11",0,0,3.231
"66","X11",1,1,2.036
"67","X11",0,0,5.516
"68","X11",0,1,3.176
"69","X11",0,0,7.008
"70","X11",0,0,12.399
"71","X11",1,1,3.431
"72","X11",1,1,4.545
"73","X11",1,1,6.239
"74","X11",0,0,7.247
"75","X11",0,1,17.744
"76","X11",1,1,9.992
"78","X11",0,1,1.987
"79","X11",1,0,2.3
"80","X11",0,0,15.863
"81","X11",0,0,7.6
"82","X11",0,0,21.076
"83","X11",1,1,5.328
"84","X11",1,1,17.35
"85","X11",1,1,7.94
"86","X11",0,1,13.732
"88","X11",1,1,4.627
"89","X11",1,1,5.497
"90","X11",1,0,4.466
"91","X11",1,1,12.237
"92","X11",0,0,7.681
"93","X11",1,1,3.969
"94","X11",1,0,8.789
"95","X11",0,0,6.658
"96","X11",0,0,6.505
"97","X11",0,0,7.144
"98","X11",0,0,6.338
"99","X11",1,1,4.887
"100","X11",1,1,2.832
"2","X12",1,0,1.188
"3","X12",1,1,3.246
"4","X12",0,1,6.025
"6","X12",1,1,1.544
"7","X12",0,1,1.383
"8","X12",1,1,2.624
"9","X12",1,1,7.679
"11","X12",0,0,3.784
"12","X12",0,1,8.054
"13","X12",1,1,9.822
"14","X12",1,0,3.241
"15","X12",0,0,6.968
"16","X12",1,1,7.84
"17","X12",1,0,7.286
"18","X12",0,0,7.471
"19","X12",1,1,5.907
"20","X12",0,1,7.966
"21","X12",1,1,3.656
"22","X12",0,0,5.553
"23","X12",1,1,0.616
"24","X12",1,1,13.92
"25","X12",0,1,3.808
"26","X12",1,1,8.608
"27","X12",0,0,3.92
"28","X12",1,0,8.65
"29","X12",1,1,12.206
"30","X12",0,1,3.613
"31","X12",1,1,19.022
"32","X12",0,0,2.352
"33","X12",1,1,14.796
"34","X12",0,0,4.93
"36","X12",0,0,0.981
"37","X12",1,0,1.731
"38","X12",1,1,6.212
"39","X12",0,0,13.207
"40","X12",1,1,6.032
"41","X12",0,0,8.602
"42","X12",1,0,39.473
"43","X12",0,0,1.943
"44","X12",0,1,1.156
"45","X12",0,0,24.664
"46","X12",0,0,18.796
"47","X12",0,0,3.751
"48","X12",1,1,7.356
"49","X12",1,1,5.968
"50","X12",0,0,5.198
"51","X12",0,0,24.372
"53","X12",1,0,9.754
"54","X12",0,0,3.662
"55","X12",1,1,2.865
"56","X12",1,1,32.722
"57","X12",0,0,6.951
"58","X12",1,1,11.974
"59","X12",0,1,24.376
"60","X12",1,0,6.65
"61","X12",1,1,4.65
"62","X12",0,0,7.392
"63","X12",1,1,4.408
"64","X12",0,0,6.974
"65","X12",1,1,3.289
"66","X12",1,1,2.382
"67","X12",1,1,6.607
"68","X12",0,0,3.624
"69","X12",1,1,5.441
"70","X12",1,0,10.407
"71","X12",0,1,4.322
"72","X12",1,1,16.839
"73","X12",1,0,4.368
"74","X12",0,0,7.816
"75","X12",0,0,6.818
"76","X12",0,0,11.135
"78","X12",0,1,2.796
"79","X12",0,0,2.301
"80","X12",0,1,6.072
"81","X12",1,1,5.953
"82","X12",0,0,15.477
"83","X12",0,0,3.594
"84","X12",0,0,13.502
"85","X12",1,0,8.112
"86","X12",0,0,3.691
"88","X12",1,1,4.619
"89","X12",0,0,10.962
"90","X12",1,1,4.833
"91","X12",0,1,12.008
"92","X12",1,1,5.871
"93","X12",0,0,3.96
"95","X12",1,1,6.407
"96","X12",1,1,6.073
"97","X12",1,1,15.673
"98","X12",0,1,6.931
"99","X12",0,0,3.84
"100","X12",0,0,5.291
"2","X13",0,1,0.804
"3","X13",0,1,3.861
"4","X13",0,0,2.303
"6","X13",1,1,2.887
"7","X13",1,0,4.975
"8","X13",0,0,3.584
"9","X13",0,0,3.177
"11","X13",1,0,13.227
"12","X13",1,0,3.98
"13","X13",1,1,8.706
"14","X13",1,1,3.129
"15","X13",0,1,4.935
"16","X13",1,1,16.047
"17","X13",1,1,2.418
"18","X13",1,1,3.48
"19","X13",0,0,4.256
"20","X13",1,1,29.409
"21","X13",0,1,6.976
"22","X13",0,0,5.16
"24","X13",0,0,6.88
"25","X13",0,1,2.871
"26","X13",1,1,13.674
"27","X13",1,0,3.742
"28","X13",0,0,8.887
"29","X13",0,0,7.271
"30","X13",0,0,4.579
"31","X13",1,0,17.885
"32","X13",1,0,5.711
"33","X13",1,1,19.73
"34","X13",1,1,6.968
"36","X13",0,1,0.874
"37","X13",1,1,1.207
"38","X13",1,1,12.419
"39","X13",1,1,14.756
"40","X13",1,1,9.345
"41","X13",1,1,15.709
"42","X13",1,1,11.314
"43","X13",1,0,2.639
"44","X13",0,0,1.32
"45","X13",1,0,60.76
"46","X13",1,1,3.73
"47","X13",0,0,5.515
"48","X13",1,1,2.232
"49","X13",0,0,3.92
"50","X13",1,1,4.765
"51","X13",0,0,31.409
"53","X13",0,0,7.727
"54","X13",0,0,3.696
"55","X13",1,0,7.475
"56","X13",1,1,10.502
"57","X13",0,1,3.853
"58","X13",1,1,2.714
"59","X13",0,0,10.856
"60","X13",1,1,1.779
"61","X13",1,0,5.089
"62","X13",0,0,4.001
"63","X13",1,1,5.468
"64","X13",1,0,8.781
"65","X13",0,1,3.847
"66","X13",0,0,2.294
"67","X13",0,0,6.283
"68","X13",1,1,5.176
"69","X13",0,0,7.151
"70","X13",1,1,8.023
"71","X13",0,0,6.701
"72","X13",1,0,13.857
"73","X13",0,0,10.432
"74","X13",0,0,10.151
"75","X13",1,1,3.777
"76","X13",0,0,2.833
"78","X13",1,0,3.563
"80","X13",0,0,8.319
"81","X13",1,1,8.256
"82","X13",0,0,18.189
"83","X13",0,0,2.394
"84","X13",0,0,6.431
"85","X13",0,0,3.386
"86","X13",0,1,4.411
"88","X13",0,0,2.229
"89","X13",1,1,4.806
"90","X13",1,1,5.228
"91","X13",1,1,13.433
"92","X13",0,0,5.139
"93","X13",1,1,6.491
"94","X13",1,1,4.401
"95","X13",1,1,12.103
"96","X13",1,1,5.746
"97","X13",0,0,12.777
"98","X13",1,0,5.377
"99","X13",0,0,4.005
"100","X13",0,0,5.47
"2","X14",1,0,1.212
"3","X14",1,1,4.103
"4","X14",1,1,5.23
"6","X14",1,1,2.567
"7","X14",1,0,2.264
"8","X14",1,1,4.473
"9","X14",1,1,5.47
"11","X14",0,1,1.728
"12","X14",1,0,13.495
"13","X14",0,0,9.189
"14","X14",0,0,4.762
"15","X14",0,0,8.422
"16","X14",1,0,5.543
"17","X14",1,1,4.976
"18","X14",0,1,7.856
"19","X14",1,0,2.224
"20","X14",1,1,11.698
"21","X14",0,1,2.419
"22","X14",1,1,2.184
"24","X14",0,1,6.813
"25","X14",1,0,2.808
"26","X14",0,0,9.483
"27","X14",1,0,19.536
"28","X14",0,0,7.435
"29","X14",1,1,13.966
"30","X14",0,0,7.115
"31","X14",1,0,9.886
"32","X14",0,0,7.886
"33","X14",1,1,16.307
"34","X14",0,0,3.033
"36","X14",1,1,0.992
"37","X14",0,0,1.264
"38","X14",1,1,8.369
"39","X14",1,1,8.23
"40","X14",1,1,6.347
"41","X14",1,0,17.772
"42","X14",0,0,6.196
"43","X14",1,1,2.128
"44","X14",1,0,1.415
"45","X14",0,0,16.002
"46","X14",0,0,17.12
"47","X14",0,0,6.665
"48","X14",1,1,3.969
"49","X14",0,0,21.023
"50","X14",0,0,2.316
"51","X14",0,0,20.75
"53","X14",1,0,6.543
"54","X14",1,0,5.094
"55","X14",0,0,19.09
"56","X14",0,0,11.07
"57","X14",1,1,7.088
"58","X14",0,0,6.349
"59","X14",0,0,10.008
"60","X14",0,1,8.904
"61","X14",0,0,4.032
"62","X14",0,0,6.511
"63","X14",1,1,5.457
"64","X14",1,1,6.588
"65","X14",0,1,7.809
"66","X14",1,1,4
"67","X14",0,0,4.009
"68","X14",0,0,4.232
"69","X14",1,1,8.481
"70","X14",0,0,9.168
"71","X14",1,0,4.62
"72","X14",0,0,7.464
"73","X14",0,1,6.816
"74","X14",1,1,7.632
"75","X14",1,1,7.997
"76","X14",1,1,13.352
"78","X14",0,0,2.604
"79","X14",0,0,1.818
"80","X14",0,0,13.135
"81","X14",1,1,15.752
"82","X14",0,0,15.412
"83","X14",0,1,3.211
"84","X14",0,0,10.974
"85","X14",0,0,4.63
"86","X14",1,1,4.575
"88","X14",1,1,4.523
"89","X14",0,0,4.074
"90","X14",1,1,2.263
"91","X14",1,0,10.609
"92","X14",1,1,10.576
"93","X14",1,0,8.002
"94","X14",0,0,9.813
"95","X14",0,0,3.884
"96","X14",1,1,12.629
"97","X14",0,0,8.433
"98","X14",0,0,5.637
"99","X14",0,0,3.162
"100","X14",0,0,3.133
"2","X15",0,1,1.16
"3","X15",0,0,3.318
"4","X15",1,1,1.784
"6","X15",0,0,2.664
"7","X15",1,1,3.209
"8","X15",1,1,3.696
"9","X15",1,0,4.644
"11","X15",0,1,8.885
"12","X15",1,1,2.9
"13","X15",1,0,7.25
"14","X15",0,1,2.741
"15","X15",0,1,23.054
"16","X15",1,1,9.088
"17","X15",0,1,4.304
"18","X15",0,0,8.624
"19","X15",1,1,1.343
"20","X15",0,0,1.984
"21","X15",0,0,8.711
"22","X15",1,1,5.728
"24","X15",0,0,8.764
"25","X15",1,1,1.848
"26","X15",1,1,9.764
"27","X15",0,0,10.675
"28","X15",0,0,6.314
"29","X15",1,1,14.298
"30","X15",0,1,1.82
"31","X15",1,1,23.423
"32","X15",1,1,6.88
"33","X15",1,1,23.497
"34","X15",0,1,5.951
"36","X15",0,0,0.955
"37","X15",0,0,1.27
"38","X15",0,1,5.851
"39","X15",0,0,3.691
"40","X15",0,1,10.71
"41","X15",0,0,10.624
"42","X15",0,0,25.567
"43","X15",1,1,1.553
"44","X15",0,1,1.109
"45","X15",0,0,12.088
"46","X15",1,1,4.895
"47","X15",1,0,7.068
"48","X15",0,0,2.704
"49","X15",1,1,6.104
"50","X15",1,1,9.59
"51","X15",0,0,30.636
"53","X15",0,0,4.473
"54","X15",1,1,3.97
"55","X15",0,0,6.317
"56","X15",1,0,9.454
"57","X15",0,0,3.508
"58","X15",1,1,9.34
"59","X15",0,0,10.249
"60","X15",0,0,3.799
"61","X15",1,1,2.152
"62","X15",1,0,6.281
"63","X15",0,0,6.8
"64","X15",0,0,4.386
"65","X15",1,1,1.688
"66","X15",1,1,2.178
"67","X15",1,1,2.159
"68","X15",0,0,4.696
"69","X15",1,1,7.888
"70","X15",1,1,8.463
"71","X15",1,1,4.391
"72","X15",1,1,4.753
"73","X15",1,0,16.094
"74","X15",1,0,8.087
"75","X15",1,1,11.84
"76","X15",1,1,5.112
"78","X15",1,1,1.912
"80","X15",0,0,8.639
"81","X15",1,1,9.168
"82","X15",1,1,13.463
"83","X15",0,1,2.373
"84","X15",1,1,14.312
"85","X15",1,0,2.856
"86","X15",1,1,3.947
"88","X15",0,1,2.657
"89","X15",1,1,6.174
"91","X15",0,0,14.931
"92","X15",1,1,8.776
"93","X15",0,0,4.793
"94","X15",1,1,2.832
"95","X15",0,0,2.442
"96","X15",0,0,20.151
"97","X15",0,0,10.704
"98","X15",0,1,6.764
"99","X15",1,0,4.794
"100","X15",1,1,5.713
"2","X16",1,1,1.173
"3","X16",1,1,3.848
"4","X16",1,1,5.328
"6","X16",1,0,3.312
"7","X16",0,0,1.472
"8","X16",0,0,6.96
"9","X16",1,1,4.259
"11","X16",0,0,5.677
"12","X16",0,1,3.633
"14","X16",1,1,1.58
"15","X16",0,0,8.342
"16","X16",1,1,6.464
"17","X16",1,1,7.63
"18","X16",0,0,8.85
"19","X16",0,0,5.468
"20","X16",1,1,3.728
"21","X16",1,1,2.16
"22","X16",0,0,2.376
"24","X16",0,1,18.017
"25","X16",1,1,3.032
"26","X16",0,0,6.566
"27","X16",1,1,4.811
"28","X16",1,0,6.472
"29","X16",0,0,8.701
"30","X16",1,1,4.593
"31","X16",1,1,3.048
"32","X16",0,0,9.2
"33","X16",0,0,13.518
"34","X16",1,1,4.329
"36","X16",1,0,0.929
"37","X16",1,1,1.244
"38","X16",1,1,4.326
"39","X16",1,0,13.504
"40","X16",0,0,9.26
"41","X16",1,0,14.79
"42","X16",0,0,44.676
"43","X16",0,1,1.24
"44","X16",1,1,1.259
"45","X16",0,0,25.44
"46","X16",1,1,10.952
"47","X16",1,1,8.072
"48","X16",0,0,2.323
"49","X16",1,1,5.984
"50","X16",1,1,3.559
"51","X16",1,1,18.795
"53","X16",0,0,6.287
"54","X16",0,0,5.935
"55","X16",0,0,7.271
"56","X16",0,0,19.372
"57","X16",0,0,20.007
"58","X16",1,0,7.329
"59","X16",1,1,7.904
"60","X16",0,0,8.919
"61","X16",1,1,4.425
"62","X16",1,1,7.775
"63","X16",1,1,6.56
"64","X16",0,0,4.482
"65","X16",0,1,1.734
"66","X16",1,1,2.46
"67","X16",0,0,3.883
"68","X16",0,0,6.968
"69","X16",1,1,8.328
"70","X16",0,0,10.416
"71","X16",0,1,6.826
"72","X16",1,1,12.224
"73","X16",1,1,13.521
"74","X16",0,0,6.656
"75","X16",1,1,7.072
"76","X16",1,1,4.36
"78","X16",0,1,1.479
"79","X16",0,0,2.383
"80","X16",0,0,9.617
"81","X16",0,0,11.319
"82","X16",1,1,34.156
"83","X16",1,1,3.511
"84","X16",0,0,6.439
"86","X16",0,1,11.807
"88","X16",0,0,2.571
"89","X16",1,1,4.152
"90","X16",0,1,3.546
"91","X16",0,0,8.78
"92","X16",0,0,13.168
"93","X16",1,1,4.903
"94","X16",0,0,4.136
"95","X16",1,0,2.569
"96","X16",0,0,8.504
"97","X16",0,0,9.152
"98","X16",0,1,8.594
"100","X16",1,1,5.884
"2","X17",0,1,1.588
"3","X17",0,1,5.199
"4","X17",1,1,4.617
"6","X17",1,1,2.152
"7","X17",1,1,1.903
"8","X17",1,1,3.807
"9","X17",0,0,4.913
"11","X17",0,0,3.776
"12","X17",0,1,9.959
"13","X17",1,1,7.18
"14","X17",0,1,6.558
"15","X17",1,1,6.659
"16","X17",1,0,6.288
"17","X17",1,1,5.892
"18","X17",0,1,17.98
"19","X17",0,1,2.656
"20","X17",0,0,5.462
"21","X17",1,1,3.28
"22","X17",1,0,4.465
"24","X17",0,0,10
"25","X17",0,0,2.56
"26","X17",0,0,5.576
"27","X17",1,1,3.008
"28","X17",0,0,5.821
"29","X17",0,0,8.041
"30","X17",1,1,1.748
"31","X17",0,1,11.114
"32","X17",0,1,4.049
"33","X17",0,0,18.871
"34","X17",1,1,5.06
"36","X17",1,1,0.598
"37","X17",1,0,1.326
"38","X17",1,1,7.528
"39","X17",1,1,6.708
"40","X17",1,0,6.711
"41","X17",1,1,10.719
"42","X17",0,0,15.151
"43","X17",1,1,3.447
"44","X17",0,1,1.116
"45","X17",0,0,24.744
"46","X17",1,1,2.673
"47","X17",1,0,5.065
"48","X17",1,1,7.192
"49","X17",0,0,6.104
"50","X17",1,1,12.974
"51","X17",0,0,23.33
"53","X17",1,1,5.863
"54","X17",0,0,4.185
"55","X17",1,1,20.25
"56","X17",1,0,12.781
"57","X17",1,0,4.831
"58","X17",1,1,12.739
"59","X17",0,0,7.064
"60","X17",0,0,1.731
"61","X17",0,0,2.553
"62","X17",1,0,6.129
"63","X17",0,1,10.423
"64","X17",1,1,2.619
"65","X17",1,1,1.816
"66","X17",0,1,2.892
"67","X17",1,1,5.605
"68","X17",1,0,8.936
"69","X17",1,1,6.112
"70","X17",0,1,9.336
"71","X17",1,1,2.692
"72","X17",1,1,7.056
"73","X17",0,0,8.319
"74","X17",0,0,13.56
"75","X17",1,1,15.808
"76","X17",0,0,4.071
"78","X17",0,0,1.669
"79","X17",1,1,2.927
"80","X17",0,0,12.568
"81","X17",1,1,11.311
"82","X17",1,1,26.501
"83","X17",1,1,3.693
"84","X17",0,0,6.751
"85","X17",0,1,2.936
"86","X17",1,1,3.493
"88","X17",1,1,2.134
"89","X17",0,0,5.517
"90","X17",0,1,3.39
"91","X17",1,1,12.759
"92","X17",0,0,3.528
"93","X17",0,0,3.605
"94","X17",0,0,3.823
"95","X17",0,0,6.648
"96","X17",1,1,3.571
"97","X17",1,1,12.312
"98","X17",1,1,6.069
"99","X17",0,1,3.15
"100","X17",1,0,4.964
"2","X18",1,0,2.212
"3","X18",0,0,3.301
"4","X18",1,1,9.847
"6","X18",1,0,7.611
"7","X18",0,0,1.936
"8","X18",1,1,4.535
"9","X18",1,1,4.589
"11","X18",1,1,2.328
"12","X18",1,1,6.985
"13","X18",0,1,5.686
"14","X18",0,0,3.269
"15","X18",0,0,7.056
"16","X18",0,1,11.136
"17","X18",1,1,5.388
"18","X18",0,1,9.703
"19","X18",0,0,3.735
"20","X18",1,1,2.772
"21","X18",1,1,4.962
"22","X18",0,1,4.536
"24","X18",1,1,11.417
"25","X18",1,0,1.871
"26","X18",0,0,8.879
"27","X18",0,1,5.403
"28","X18",0,0,4.377
"29","X18",0,0,11.547
"30","X18",1,1,1.856
"31","X18",0,0,6.124
"32","X18",0,0,6.816
"33","X18",0,0,19.527
"34","X18",1,1,5.232
"36","X18",1,1,1.06
"37","X18",0,0,2.263
"38","X18",0,0,11.248
"39","X18",1,1,6.191
"40","X18",0,1,10.152
"41","X18",1,1,13.739
"42","X18",0,0,11.674
"43","X18",1,1,1.304
"44","X18",0,0,1.854
"45","X18",0,0,11.36
"46","X18",1,1,2.771
"47","X18",1,1,2.627
"48","X18",0,0,3.824
"49","X18",1,1,13.999
"50","X18",1,1,3.223
"51","X18",1,1,10.912
"53","X18",0,0,5.761
"54","X18",1,1,5.297
"55","X18",0,1,7.088
"56","X18",0,0,28.514
"57","X18",1,1,4.117
"58","X18",1,1,4.521
"59","X18",1,1,18.232
"60","X18",1,1,6.71
"61","X18",1,1,2.345
"62","X18",0,1,7.335
"63","X18",1,1,5.811
"64","X18",0,1,10.714
"65","X18",1,1,2.76
"66","X18",1,1,1.653
"67","X18",1,1,4.518
"68","X18",0,1,3.879
"69","X18",0,0,10.303
"70","X18",1,1,13.487
"71","X18",0,0,3.829
"72","X18",1,1,6.209
"73","X18",0,0,9.008
"74","X18",0,0,6.568
"75","X18",1,1,3.584
"76","X18",0,0,3.887
"78","X18",0,1,2.38
"79","X18",0,0,3.492
"80","X18",1,1,5.992
"81","X18",1,1,18.12
"82","X18",1,1,22.517
"83","X18",1,0,2.199
"84","X18",1,1,15.679
"85","X18",1,0,4.371
"86","X18",1,1,4.27
"88","X18",0,0,2.493
"89","X18",0,0,10.541
"90","X18",1,1,2.994
"91","X18",1,1,21.315
"92","X18",1,1,6.008
"93","X18",0,0,8.92
"94","X18",0,0,10.409
"95","X18",0,0,3.913
"96","X18",1,0,7.955
"97","X18",1,1,6.984
"98","X18",1,0,5.605
"99","X18",1,1,6.316
"100","X18",1,0,3.817
"3","X19",0,1,8.969
"4","X19",0,1,4.778
"6","X19",0,0,2.357
"7","X19",0,0,6.935
"8","X19",0,0,2.544
"9","X19",0,1,8.628
"11","X19",1,1,3.156
"12","X19",0,0,8.242
"13","X19",1,1,5.915
"14","X19",0,1,1.557
"15","X19",0,0,4.394
"16","X19",1,1,7.696
"17","X19",0,0,5.034
"18","X19",0,1,6.252
"19","X19",0,0,2.536
"20","X19",1,1,1.165
"21","X19",1,0,4.56
"22","X19",1,0,3.471
"24","X19",0,0,28.661
"25","X19",1,0,2.32
"26","X19",1,0,7.021
"27","X19",1,1,8.036
"28","X19",0,1,5.883
"29","X19",0,0,7.757
"30","X19",0,0,2.166
"31","X19",0,0,26.675
"32","X19",0,0,7.888
"33","X19",1,1,11.243
"34","X19",1,1,6.016
"36","X19",1,0,0.948
"37","X19",0,0,8.773
"38","X19",1,1,11.792
"39","X19",0,0,10.258
"40","X19",0,0,7.764
"41","X19",1,0,12.296
"42","X19",1,1,6.126
"43","X19",0,1,2.657
"44","X19",1,0,1.329
"45","X19",1,1,18.336
"46","X19",1,0,4.687
"47","X19",1,1,4.375
"48","X19",0,0,2.911
"49","X19",0,0,11.408
"50","X19",0,1,9.523
"51","X19",0,1,10.2
"53","X19",1,1,3.832
"54","X19",1,0,7.477
"55","X19",0,1,9.235
"56","X19",0,1,24.228
"57","X19",0,1,3.607
"58","X19",0,0,2.904
"59","X19",0,0,22.272
"60","X19",0,1,5.349
"61","X19",0,0,3.849
"62","X19",0,0,6.216
"63","X19",0,0,6.625
"64","X19",1,1,4.911
"65","X19",0,1,4.953
"66","X19",1,1,2.317
"67","X19",1,1,3.917
"68","X19",1,1,3.791
"69","X19",1,0,6.168
"70","X19",0,0,8.143
"71","X19",0,0,4.875
"72","X19",1,1,20.039
"73","X19",1,0,15.665
"74","X19",0,0,6.048
"75","X19",1,1,8.32
"76","X19",0,0,13.8
"78","X19",0,1,2.848
"79","X19",0,1,1.855
"80","X19",1,1,7.4
"81","X19",0,0,14.656
"82","X19",0,0,6.75
"83","X19",1,1,1.718
"84","X19",0,0,7.038
"85","X19",0,1,4.254
"86","X19",0,1,5.104
"89","X19",0,0,8.634
"90","X19",0,1,3.996
"91","X19",0,1,18.719
"92","X19",1,1,4.887
"93","X19",0,1,3.499
"94","X19",1,1,3.182
"95","X19",0,0,5.867
"96","X19",1,0,5.83
"97","X19",1,1,10.455
"98","X19",1,1,6.592
"100","X19",1,1,2.524
"2","X20",0,0,2
"3","X20",1,1,3.008
"4","X20",0,0,1.881
"6","X20",1,1,2.355
"7","X20",0,1,1.295
"8","X20",1,0,6.392
"9","X20",1,1,6.988
"11","X20",0,1,2.454
"12","X20",0,0,5.677
"14","X20",0,1,1.735
"15","X20",0,0,10.109
"16","X20",1,1,6.199
"17","X20",0,0,7.01
"18","X20",0,1,5.748
"19","X20",0,0,2.4
"20","X20",1,1,5.492
"21","X20",1,1,2.048
"22","X20",0,1,3.184
"24","X20",1,1,4.383
"25","X20",1,1,1.744
"26","X20",0,0,8.454
"27","X20",1,1,3.918
"28","X20",1,1,8.441
"29","X20",1,1,7.924
"30","X20",1,0,1.643
"31","X20",1,1,4.857
"32","X20",1,0,5.008
"33","X20",1,1,11.602
"34","X20",1,1,19.838
"36","X20",1,1,1.214
"37","X20",1,1,2.422
"38","X20",0,0,12.313
"39","X20",0,0,2.93
"40","X20",1,1,10.721
"41","X20",0,0,9.429
"42","X20",1,0,7.399
"43","X20",1,1,1.768
"44","X20",1,1,1.128
"45","X20",0,0,22.169
"46","X20",0,0,4.611
"47","X20",0,0,3.709
"48","X20",0,0,7.217
"49","X20",0,0,5.856
"50","X20",1,0,5.115
"51","X20",0,0,13.997
"53","X20",0,1,2.728
"54","X20",0,1,3.824
"55","X20",1,1,6.775
"56","X20",0,1,11.422
"57","X20",1,1,3.583
"58","X20",1,1,3.637
"59","X20",1,1,11.64
"60","X20",0,1,1.791
"61","X20",0,0,4.384
"62","X20",1,0,5.511
"63","X20",1,1,3.432
"64","X20",1,1,4.265
"65","X20",0,0,2.904
"66","X20",1,1,2.422
"67","X20",1,0,5.784
"68","X20",0,0,7.984
"69","X20",1,1,4.656
"70","X20",0,0,13.071
"71","X20",0,0,7.05
"72","X20",0,0,8.703
"73","X20",1,1,8.511
"74","X20",0,0,8.704
"75","X20",0,1,13.84
"76","X20",0,0,3.087
"78","X20",1,0,3.196
"79","X20",0,0,2.079
"80","X20",1,1,7.462
"81","X20",0,0,14.775
"82","X20",0,0,11.513
"83","X20",1,1,2.528
"84","X20",0,1,28.319
"89","X20",1,1,9.613
"90","X20",1,0,3.222
"91","X20",1,1,12.583
"92","X20",1,1,11.434
"93","X20",1,1,5.707
"94","X20",1,0,6.553
"95","X20",1,1,2.804
"96","X20",0,1,6.875
"97","X20",0,1,7.144
"98","X20",1,1,4.894
"99","X20",0,0,3.267
"100","X20",0,0,3.484
"2","X21",0,1,2.536
"3","X21",0,0,4.207
"4","X21",1,1,3.368
"6","X21",1,1,3.869
"7","X21",1,1,1.392
"8","X21",0,1,7.056
"9","X21",1,0,7.333
"11","X21",0,0,1.892
"12","X21",1,1,3.257
"13","X21",1,0,9.232
"14","X21",1,1,2.001
"15","X21",0,0,4.991
"16","X21",1,1,4.024
"17","X21",1,1,7.808
"18","X21",1,1,8.454
"19","X21",1,1,2.616
"20","X21",0,0,2.321
"21","X21",0,1,5.061
"22","X21",0,0,5.336
"24","X21",0,1,9.186
"25","X21",1,0,3.144
"26","X21",1,1,9.144
"27","X21",0,0,7.129
"28","X21",0,0,6.966
"29","X21",0,0,7.079
"30","X21",0,1,3.234
"31","X21",1,0,10.119
"32","X21",1,1,1.792
"33","X21",1,0,13.904
"34","X21",0,0,1.833
"36","X21",1,0,1.47
"37","X21",0,0,3.563
"38","X21",0,0,10.2
"39","X21",1,1,14.894
"40","X21",1,1,11.773
"41","X21",1,1,26.906
"42","X21",0,0,9.453
"43","X21",0,1,1.344
"44","X21",0,1,1.56
"45","X21",1,1,22.12
"46","X21",1,1,5.631
"47","X21",0,1,4.448
"48","X21",0,0,3.2
"49","X21",1,1,4.751
"50","X21",1,0,5.403
"51","X21",1,1,20.471
"53","X21",0,0,6.608
"54","X21",0,0,5.539
"55","X21",0,1,7.368
"56","X21",1,1,8.51
"57","X21",1,1,4.718
"58","X21",1,1,4.007
"59","X21",1,0,10.072
"60","X21",1,0,1.694
"61","X21",0,0,3.383
"62","X21",1,1,6.567
"63","X21",0,0,9.409
"64","X21",0,0,6.42
"65","X21",0,1,2.144
"66","X21",0,0,2.832
"67","X21",1,0,3.584
"68","X21",0,0,4.723
"69","X21",0,1,6.616
"70","X21",1,1,11.207
"71","X21",0,0,2.512
"72","X21",0,0,5.536
"73","X21",1,1,6.225
"74","X21",0,0,7.793
"75","X21",1,1,7.986
"76","X21",1,1,3.632
"78","X21",1,1,2.447
"79","X21",0,1,1.269
"80","X21",0,0,6.457
"81","X21",0,0,6.784
"82","X21",0,0,4.362
"83","X21",1,1,12.185
"84","X21",0,0,7.535
"85","X21",0,0,4.698
"86","X21",0,1,3.282
"88","X21",0,0,1.983
"89","X21",1,1,4.729
"90","X21",0,1,2.875
"91","X21",0,1,17.062
"92","X21",0,0,14.169
"93","X21",1,1,10.193
"94","X21",1,1,2.341
"95","X21",0,0,5.591
"96","X21",1,1,10.247
"97","X21",1,1,10.328
"98","X21",0,0,3.085
"99","X21",1,1,10.878
"100","X21",0,1,6.068
"2","X22",1,1,2.228
"3","X22",1,1,2.857
"4","X22",1,0,6.825
"6","X22",1,1,2.078
"7","X22",1,1,2.008
"8","X22",0,1,2.768
"9","X22",1,0,2.659
"11","X22",1,1,3.66
"12","X22",0,1,5.079
"14","X22",0,0,3.66
"15","X22",1,1,7.463
"16","X22",1,1,17.536
"17","X22",1,0,11.94
"18","X22",0,1,17.783
"19","X22",1,1,2.328
"20","X22",0,1,1.597
"21","X22",1,1,4.169
"22","X22",0,1,2.801
"24","X22",1,0,8.649
"25","X22",0,1,2.936
"26","X22",1,1,3.692
"27","X22",1,1,3.966
"28","X22",0,0,9.192
"29","X22",1,1,6.668
"30","X22",0,0,2.443
"31","X22",1,1,6.623
"32","X22",0,1,7.361
"33","X22",1,1,9.546
"34","X22",0,1,2.527
"36","X22",0,1,1.478
"37","X22",1,1,2.019
"38","X22",1,1,9.454
"39","X22",1,0,5.84
"40","X22",1,1,4.67
"41","X22",0,1,12.643
"42","X22",1,1,7.457
"43","X22",1,0,1.631
"44","X22",0,0,1.172
"45","X22",0,0,18.192
"46","X22",0,0,4.654
"47","X22",1,1,2.743
"48","X22",0,1,2.216
"49","X22",1,1,9.112
"50","X22",0,0,6.37
"51","X22",0,0,33.699
"53","X22",1,1,2.991
"54","X22",1,1,5.616
"55","X22",1,1,4.557
"56","X22",1,0,4.943
"57","X22",0,1,6.92
"58","X22",0,0,3.352
"59","X22",0,0,18.272
"60","X22",1,1,2.934
"61","X22",1,1,4.384
"62","X22",1,1,7.121
"63","X22",1,1,3.232
"64","X22",1,1,7.821
"65","X22",0,1,5.575
"66","X22",1,0,3.281
"67","X22",0,0,2.421
"68","X22",1,1,3.192
"69","X22",1,0,13.559
"70","X22",0,0,12.695
"71","X22",1,1,2.128
"72","X22",0,0,5.648
"73","X22",0,0,5.816
"74","X22",1,1,12.384
"75","X22",0,0,4.451
"76","X22",0,0,5.935
"78","X22",1,1,2.736
"79","X22",1,0,3.182
"80","X22",0,0,8.183
"81","X22",0,0,7.67
"82","X22",1,0,8.364
"83","X22",1,1,3.209
"84","X22",1,1,6.543
"86","X22",1,1,4.656
"88","X22",1,1,1.378
"89","X22",0,0,4.018
"90","X22",0,0,3.011
"91","X22",0,0,17.69
"92","X22",1,0,10.72
"93","X22",1,1,14.5
"94","X22",0,0,9.861
"95","X22",0,0,2.542
"96","X22",0,0,11.573
"97","X22",0,0,9.688
"98","X22",1,0,3.547
"99","X22",1,0,4.397
"100","X22",1,1,2.674
"2","X23",0,0,1.304
"3","X23",1,1,2.104
"4","X23",0,1,2.728
"6","X23",1,1,6.327
"7","X23",0,1,1.744
"8","X23",0,0,2.72
"9","X23",0,0,9.118
"11","X23",1,1,1.772
"12","X23",1,1,5.588
"13","X23",1,1,5.756
"14","X23",0,1,2.701
"15","X23",1,1,4.059
"16","X23",1,1,11.6
"17","X23",0,0,12.43
"18","X23",1,1,12.426
"19","X23",1,1,2.729
"20","X23",1,0,2.446
"21","X23",0,0,9.12
"22","X23",1,1,4.409
"24","X23",0,0,7.859
"25","X23",1,0,2.536
"26","X23",1,1,4.136
"27","X23",1,1,12.646
"28","X23",1,0,4.079
"29","X23",1,1,13.929
"30","X23",1,0,2.867
"31","X23",0,0,12.436
"32","X23",1,1,2.207
"33","X23",1,1,15
"34","X23",0,1,6.224
"36","X23",0,0,2.053
"37","X23",1,1,4.16
"38","X23",0,0,8.59
"39","X23",0,1,5.966
"40","X23",1,1,9.941
"41","X23",0,0,18.665
"42","X23",1,1,10.748
"43","X23",1,1,4.063
"44","X23",1,0,1.255
"45","X23",1,0,38.071
"46","X23",1,1,1.696
"47","X23",1,1,2.202
"48","X23",1,0,6.802
"49","X23",0,0,8.335
"50","X23",0,0,4.497
"51","X23",1,1,8.288
"53","X23",0,0,3.025
"54","X23",0,0,5.758
"55","X23",0,0,12.32
"56","X23",1,1,13.957
"57","X23",0,0,3.02
"58","X23",0,0,7.434
"59","X23",0,0,9.6
"60","X23",0,1,3.276
"61","X23",0,0,4.664
"62","X23",1,1,4.527
"63","X23",0,0,6.789
"64","X23",0,1,8.454
"65","X23",0,1,2.537
"66","X23",1,0,2.918
"67","X23",1,1,2.15
"68","X23",1,1,6.44
"69","X23",1,1,3.792
"70","X23",0,0,10.304
"71","X23",0,1,4.8
"72","X23",0,0,14.222
"73","X23",1,0,6.656
"74","X23",1,1,6.257
"75","X23",1,1,2.656
"76","X23",1,1,6.223
"78","X23",0,0,2.014
"79","X23",0,0,2.165
"80","X23",0,1,14.231
"81","X23",0,0,8.32
"82","X23",0,1,8.175
"84","X23",0,0,7.511
"86","X23",1,1,6.934
"88","X23",0,1,5.451
"89","X23",0,0,8.718
"90","X23",0,0,3.997
"91","X23",1,1,8.688
"92","X23",0,1,4.587
"93","X23",0,0,6.207
"94","X23",1,0,3.724
"95","X23",0,0,4.728
"96","X23",1,1,10.34
"97","X23",1,1,9.695
"98","X23",1,1,7.707
"100","X23",0,1,2.509
"2","X24",1,0,1.972
"3","X24",1,0,2.714
"4","X24",1,1,3.008
"6","X24",1,1,1.519
"7","X24",0,0,1.312
"8","X24",0,1,4.311
"9","X24",1,1,4.217
"11","X24",0,0,4.848
"12","X24",1,1,3.702
"13","X24",1,0,7.64
"14","X24",1,0,3.534
"15","X24",0,0,10.942
"16","X24",0,0,5.623
"17","X24",0,1,4.932
"18","X24",1,0,7.318
"19","X24",0,0,1.883
"20","X24",0,1,1.112
"21","X24",1,1,4.784
"22","X24",0,1,5.394
"24","X24",1,1,9.752
"25","X24",1,1,1.959
"26","X24",1,1,6.666
"27","X24",1,0,5.392
"28","X24",1,1,10.523
"29","X24",1,0,7.817
"30","X24",0,0,2.496
"31","X24",1,1,16.376
"32","X24",1,1,4.529
"33","X24",0,0,11.395
"34","X24",1,1,5.136
"36","X24",1,1,1.114
"37","X24",1,1,11.564
"39","X24",1,1,5.984
"40","X24",1,1,9.052
"41","X24",1,1,6.545
"42","X24",0,0,16.362
"43","X24",1,1,1.776
"44","X24",1,1,1.15
"45","X24",0,0,25.296
"46","X24",1,1,1.658
"47","X24",0,0,2.924
"48","X24",0,0,9.4
"49","X24",0,0,7.856
"50","X24",1,0,2.524
"51","X24",0,1,7.896
"53","X24",0,0,6.16
"54","X24",0,0,2.285
"55","X24",1,1,20.963
"56","X24",0,0,15.429
"57","X24",0,1,1.848
"58","X24",0,0,16.533
"59","X24",0,0,8.297
"60","X24",0,1,6.343
"61","X24",1,1,4.312
"62","X24",1,1,10.696
"63","X24",0,0,9.993
"64","X24",1,1,4.059
"65","X24",0,1,1.423
"66","X24",0,0,2.932
"67","X24",1,1,3.966
"68","X24",1,1,4.384
"69","X24",1,1,5.392
"70","X24",1,1,7.272
"71","X24",0,1,8.717
"72","X24",1,1,4.344
"73","X24",0,1,4.984
"74","X24",0,0,6.44
"75","X24",1,1,8.672
"76","X24",0,1,9.305
"78","X24",0,0,2.592
"79","X24",1,1,2.513
"80","X24",0,0,13.712
"81","X24",1,1,10.959
"82","X24",1,1,13.289
"83","X24",0,1,9.624
"84","X24",0,0,5.527
"86","X24",0,0,2.707
"88","X24",1,1,2.399
"89","X24",0,0,3.51
"90","X24",0,0,5.112
"91","X24",1,1,13.274
"92","X24",0,1,10.92
"93","X24",1,1,8.803
"94","X24",0,1,7.92
"95","X24",1,1,4.642
"96","X24",0,0,10.447
"97","X24",0,0,10.768
"98","X24",0,0,6.04
"99","X24",1,1,3.011
"100","X24",1,1,3.8
"2","X25",1,1,1.832
"3","X25",0,0,3.408
"4","X25",1,1,3.336
"6","X25",1,1,1.48
"7","X25",0,1,1.456
"8","X25",0,1,4.88
"9","X25",0,1,8.069
"11","X25",1,1,8.858
"12","X25",0,0,4.576
"14","X25",0,0,3.703
"15","X25",0,1,1.612
"16","X25",1,1,15.375
"17","X25",0,1,2.476
"18","X25",0,1,14.622
"19","X25",0,0,2.44
"20","X25",1,1,1.14
"21","X25",1,1,8.239
"22","X25",0,0,8.035
"24","X25",1,1,6.041
"25","X25",1,0,2.967
"26","X25",0,1,9.761
"27","X25",0,0,4.754
"28","X25",0,1,10.327
"29","X25",0,0,11.065
"30","X25",1,1,1.687
"31","X25",1,1,4.646
"32","X25",0,0,2.832
"33","X25",0,0,18.249
"34","X25",1,1,7.144
"36","X25",0,0,0.66
"37","X25",0,1,4.974
"38","X25",1,1,8.967
"39","X25",1,0,6.613
"40","X25",0,1,12.414
"41","X25",1,0,8.335
"42","X25",1,1,19.794
"43","X25",0,0,1.463
"44","X25",1,1,1.207
"45","X25",0,0,19.761
"46","X25",0,0,4.969
"47","X25",1,1,1.853
"48","X25",0,1,6.934
"49","X25",0,0,5.824
"50","X25",1,1,5.141
"51","X25",0,1,21.968
"53","X25",1,0,7.191
"54","X25",0,0,2.032
"55","X25",0,0,5.504
"56","X25",0,1,22.076
"57","X25",1,1,3.548
"58","X25",1,1,2.942
"59","X25",0,0,15.04
"60","X25",1,1,2.269
"61","X25",0,0,4.529
"62","X25",1,1,10.368
"63","X25",1,0,6.362
"64","X25",1,1,3.629
"65","X25",0,1,2.575
"66","X25",1,1,3.706
"67","X25",1,1,2.684
"68","X25",1,1,6.048
"69","X25",1,0,10.832
"70","X25",1,1,11.191
"71","X25",0,0,9.411
"72","X25",1,0,6.991
"73","X25",1,1,5.072
"74","X25",1,1,9.68
"75","X25",1,1,3.776
"76","X25",0,0,6.727
"78","X25",0,1,3.036
"79","X25",1,1,2.648
"80","X25",1,1,10.712
"81","X25",1,0,18.144
"82","X25",1,1,9.713
"83","X25",0,1,2.961
"84","X25",0,0,13.022
"85","X25",0,1,4.202
"86","X25",1,1,1.203
"88","X25",0,0,1.232
"89","X25",1,1,4.658
"90","X25",1,0,2.891
"91","X25",1,0,17.294
"92","X25",1,1,17.844
"93","X25",0,0,3.73
"94","X25",0,0,2.864
"95","X25",0,0,2.988
"96","X25",1,1,8.353
"97","X25",0,1,6.111
"98","X25",0,0,6.762
"99","X25",1,0,3.797
"100","X25",1,1,2.861
"2","X26",1,1,1.248
"3","X26",0,0,2.871
"4","X26",0,0,6.777
"6","X26",1,0,1.457
"7","X26",1,1,1.856
"8","X26",0,0,4.12
"9","X26",0,1,5.577
"11","X26",1,1,1.953
"12","X26",1,1,5.65
"13","X26",1,1,4.343
"14","X26",1,0,3.841
"15","X26",1,0,9.127
"16","X26",1,1,8.488
"17","X26",0,0,11.55
"18","X26",1,1,6.853
"19","X26",0,1,1.695
"20","X26",0,1,3.012
"21","X26",0,1,5.437
"22","X26",0,0,3.688
"24","X26",0,0,15.119
"25","X26",1,0,2.783
"26","X26",1,0,5.593
"27","X26",1,1,2.96
"28","X26",1,1,5.015
"29","X26",1,1,12.539
"30","X26",0,0,1.525
"31","X26",0,0,9.442
"32","X26",0,0,2.304
"33","X26",1,0,19.732
"34","X26",1,0,7.127
"37","X26",0,0,1.841
"38","X26",1,1,17.265
"39","X26",0,0,7.943
"40","X26",0,0,3.623
"41","X26",0,0,4.64
"42","X26",0,0,25.711
"43","X26",1,1,2.127
"44","X26",0,0,1.028
"45","X26",0,0,18.376
"46","X26",1,0,3.743
"47","X26",0,0,2.392
"48","X26",1,1,7.279
"49","X26",0,0,12.088
"50","X26",0,1,5.514
"51","X26",0,1,11.215
"53","X26",1,1,5.207
"54","X26",1,1,2.856
"55","X26",0,1,7.158
"56","X26",0,0,8.758
"57","X26",1,0,8.459
"58","X26",1,0,5.009
"59","X26",1,1,10.712
"60","X26",0,0,4.567
"61","X26",0,0,3.889
"62","X26",1,1,8.415
"63","X26",1,1,4.353
"64","X26",1,1,5.466
"65","X26",0,0,2.936
"66","X26",1,1,2.486
"67","X26",1,1,3.565
"68","X26",1,1,3.511
"69","X26",1,1,6.064
"70","X26",1,1,6.039
"71","X26",1,1,2.378
"72","X26",0,0,11.232
"73","X26",0,1,12.168
"74","X26",0,0,7.544
"75","X26",1,1,5.472
"76","X26",0,0,6.025
"78","X26",0,0,5.353
"79","X26",0,1,3.307
"80","X26",1,1,15.32
"81","X26",1,0,11.424
"82","X26",0,1,6.638
"83","X26",0,1,2.894
"84","X26",0,1,5.824
"85","X26",1,1,2.658
"86","X26",1,0,1.165
"88","X26",1,1,6.937
"89","X26",1,1,4.852
"90","X26",0,0,2.124
"91","X26",0,0,15.296
"92","X26",0,0,4.576
"93","X26",0,0,5.19
"94","X26",1,1,5.829
"95","X26",1,1,4.4
"96","X26",0,0,5.222
"97","X26",0,0,6.064
"98","X26",1,0,8.001
"100","X26",0,0,4.423
"2","X27",1,1,0.768
"3","X27",0,0,3.408
"4","X27",1,1,6.063
"6","X27",1,0,1.834
"7","X27",0,1,2.375
"8","X27",1,1,4.512
"9","X27",1,1,3.762
"11","X27",0,1,2.509
"12","X27",0,0,4.947
"13","X27",1,1,5.964
"14","X27",1,1,3.409
"15","X27",1,1,2.878
"16","X27",0,1,9.352
"17","X27",0,0,5.514
"18","X27",1,1,2.416
"19","X27",0,1,2.152
"20","X27",1,1,1.292
"21","X27",0,0,2.769
"22","X27",0,0,2.4
"23","X27",0,0,1.562
"24","X27",0,0,9.897
"25","X27",0,1,2.287
"26","X27",1,1,4.294
"27","X27",0,0,16.875
"28","X27",0,0,7.265
"29","X27",0,1,6.762
"30","X27",0,0,1.725
"31","X27",1,1,7.593
"32","X27",0,1,3.071
"33","X27",1,1,7.133
"34","X27",1,1,4.16
"37","X27",1,1,5.269
"38","X27",1,1,10.179
"39","X27",1,1,6.422
"40","X27",0,0,5.076
"41","X27",0,0,18.661
"42","X27",0,0,13.82
"43","X27",0,0,3.254
"44","X27",0,0,1.375
"45","X27",1,1,30.471
"46","X27",0,0,12.037
"47","X27",0,0,2.662
"48","X27",1,0,7.815
"49","X27",1,1,7.664
"50","X27",0,0,6.969
"51","X27",1,1,10.37
"53","X27",1,1,6.168
"54","X27",0,0,3.872
"55","X27",0,0,2.642
"56","X27",0,0,26.716
"57","X27",0,1,2.799
"58","X27",1,1,3.735
"59","X27",0,0,8.556
"60","X27",0,0,2.709
"61","X27",0,0,3.103
"62","X27",0,0,6.215
"63","X27",1,1,7.368
"64","X27",0,1,4.575
"65","X27",1,1,2.351
"66","X27",1,1,2.153
"67","X27",1,1,4.544
"68","X27",1,1,6.049
"69","X27",0,0,8.281
"70","X27",0,1,13.327
"71","X27",0,0,2.908
"72","X27",1,1,4.417
"73","X27",0,0,11.896
"74","X27",1,1,6.112
"75","X27",0,1,10.288
"76","X27",1,0,4.248
"78","X27",1,1,1.855
"79","X27",1,1,2.665
"80","X27",0,0,6.007
"81","X27",0,0,18.415
"82","X27",1,1,8.464
"83","X27",1,1,5.816
"84","X27",1,1,9.704
"85","X27",0,1,8.472
"86","X27",1,1,2.621
"89","X27",0,1,7.336
"90","X27",1,0,3.921
"92","X27",0,0,7.696
"93","X27",0,1,3.936
"94","X27",1,1,4.858
"95","X27",1,1,5.171
"96","X27",1,1,4.88
"97","X27",1,1,15.824
"98","X27",0,0,7.468
"99","X27",1,1,1.873
"100","X27",0,0,3.171
"2","X28",0,0,1.243
"3","X28",1,1,4.44
"4","X28",1,0,4.503
"6","X28",0,1,1.2
"7","X28",1,0,1.392
"8","X28",1,1,3.2
"9","X28",1,1,14.402
"11","X28",0,1,1.717
"12","X28",0,0,9.485
"13","X28",1,1,7.51
"14","X28",0,0,2.042
"15","X28",1,1,6.186
"16","X28",0,0,6.888
"17","X28",0,0,3.02
"18","X28",1,1,2.971
"19","X28",0,1,8.62
"20","X28",0,0,3.453
"21","X28",1,0,3.826
"22","X28",1,1,2.08
"23","X28",1,1,1.543
"24","X28",1,1,8.51
"25","X28",1,1,3.025
"26","X28",1,1,8.782
"27","X28",1,1,6.497
"28","X28",0,0,4.484
"29","X28",0,0,5.467
"30","X28",1,1,2.081
"31","X28",0,0,16.383
"32","X28",0,0,6.111
"33","X28",1,0,15.95
"34","X28",1,1,5.659
"37","X28",0,0,1.773
"38","X28",1,1,18.276
"39","X28",0,0,10.87
"40","X28",1,1,5.788
"41","X28",1,1,6.446
"42","X28",1,1,6.578
"43","X28",0,0,2.952
"44","X28",1,1,1.189
"45","X28",0,0,49.64
"46","X28",1,1,4.36
"47","X28",0,0,2.542
"48","X28",0,0,2.423
"49","X28",0,0,11.992
"50","X28",1,1,5.714
"51","X28",0,1,9.42
"53","X28",1,1,3.296
"54","X28",0,1,3.485
"55","X28",1,0,13.324
"56","X28",1,1,16.053
"57","X28",1,1,6.52
"58","X28",0,1,3.944
"59","X28",1,1,4.504
"60","X28",1,1,2.995
"61","X28",1,1,7.608
"62","X28",0,0,3.927
"63","X28",1,1,6.281
"64","X28",1,0,6.439
"65","X28",1,1,3.2
"66","X28",1,1,1.439
"67","X28",0,1,6.444
"68","X28",1,1,5.111
"69","X28",1,0,8.416
"70","X28",1,1,16.415
"71","X28",0,0,1.706
"72","X28",1,1,8.176
"73","X28",0,0,15.09
"74","X28",0,1,16.848
"75","X28",1,1,19.152
"76","X28",0,0,3.976
"78","X28",1,0,3.444
"79","X28",1,1,2.132
"80","X28",1,1,14.256
"81","X28",1,1,9.536
"82","X28",0,0,13.963
"83","X28",1,1,3.915
"84","X28",1,1,8.702
"85","X28",0,1,3.916
"86","X28",0,0,4.172
"89","X28",0,0,8.535
"90","X28",0,0,3.274
"91","X28",1,1,10.576
"92","X28",1,1,9.577
"93","X28",1,1,6.046
"94","X28",1,0,10.054
"95","X28",1,1,6.889
"96","X28",0,0,4.9
"97","X28",1,1,9.112
"98","X28",0,0,6.855
"99","X28",1,1,3.178
"100","X28",1,1,5.54
"2","X29",0,1,1.76
"3","X29",1,0,3.974
"4","X29",1,1,4.731
"6","X29",0,0,2.849
"7","X29",0,0,2.368
"8","X29",0,0,4.511
"9","X29",0,0,7.934
"11","X29",0,1,3.692
"12","X29",0,1,5.425
"14","X29",1,1,2.516
"15","X29",1,1,23.143
"16","X29",0,1,17.623
"17","X29",0,1,8.338
"18","X29",1,1,2.729
"19","X29",1,0,6.185
"20","X29",0,0,2.175
"21","X29",1,0,8.361
"22","X29",0,0,4.664
"23","X29",0,1,1.494
"25","X29",0,0,2.079
"26","X29",0,1,6.734
"27","X29",1,1,3.332
"28","X29",1,1,11.203
"29","X29",0,1,5.726
"30","X29",1,1,1.461
"31","X29",1,1,8.062
"32","X29",1,0,5.712
"33","X29",0,0,14.178
"34","X29",1,1,6.89
"37","X29",1,1,15.66
"38","X29",1,1,8.504
"39","X29",1,1,8.607
"40","X29",1,1,8.158
"41","X29",0,0,14.205
"42","X29",1,1,18.147
"43","X29",1,1,1.392
"44","X29",0,1,1.763
"45","X29",0,1,10.384
"46","X29",0,0,5.361
"47","X29",1,1,3.261
"48","X29",0,0,5.597
"49","X29",1,1,4.696
"50","X29",1,0,5.289
"51","X29",0,0,12.353
"53","X29",1,0,2.528
"54","X29",0,0,3.82
"55","X29",0,0,22.52
"56","X29",1,1,21.092
"57","X29",0,1,2.518
"58","X29",0,0,6.774
"59","X29",1,0,6.182
"60","X29",1,1,3.07
"61","X29",0,0,2.353
"62","X29",0,0,5.92
"63","X29",1,1,5.189
"64","X29",0,0,3.553
"65","X29",0,1,6.592
"66","X29",0,0,1.743
"67","X29",0,0,5.198
"68","X29",1,0,1.911
"69","X29",0,0,8.271
"70","X29",0,0,12.864
"72","X29",0,0,10.721
"73","X29",1,1,4.056
"74","X29",0,1,27.024
"75","X29",0,1,12.949
"76","X29",0,0,11.384
"78","X29",0,0,3.233
"79","X29",1,1,1.693
"80","X29",1,1,18.033
"81","X29",1,1,10.128
"82","X29",0,0,11.063
"83","X29",1,1,4.103
"84","X29",1,1,10.424
"86","X29",0,1,2.626
"88","X29",1,0,3.25
"89","X29",1,1,3.336
"90","X29",1,1,1.72
"91","X29",0,0,14.147
"92","X29",1,1,4.197
"93","X29",1,1,8.599
"94","X29",0,0,6.357
"95","X29",1,1,1.674
"96","X29",1,1,7.778
"97","X29",1,1,12.488
"98","X29",0,0,4.253
"100","X29",1,1,3.607
"2","X30",1,1,1.456
"3","X30",1,0,5.171
"4","X30",1,1,3.106
"6","X30",0,1,5.089
"7","X30",0,0,1.385
"8","X30",0,0,7.104
"9","X30",0,0,6.059
"11","X30",0,0,4.125
"12","X30",0,0,4.695
"13","X30",0,0,6.957
"14","X30",1,1,1.919
"15","X30",0,1,1.693
"16","X30",1,0,7.912
"17","X30",0,0,7.637
"18","X30",1,0,4.79
"19","X30",1,1,3.552
"20","X30",0,0,1.346
"21","X30",1,1,9.968
"22","X30",0,1,2.753
"23","X30",1,0,1.613
"24","X30",1,1,8.407
"25","X30",1,1,2.536
"26","X30",0,0,9.008
"27","X30",1,1,4.519
"28","X30",0,0,5.751
"29","X30",1,1,7.689
"30","X30",0,1,2.455
"31","X30",0,0,12.002
"32","X30",1,1,6.801
"33","X30",0,0,12.092
"34","X30",1,1,4.52
"37","X30",0,1,2.324
"38","X30",0,0,8.523
"39","X30",1,1,6.812
"40","X30",0,1,8.389
"41","X30",0,0,11.201
"42","X30",1,1,9.755
"43","X30",0,0,1.16
"44","X30",0,1,1.125
"46","X30",0,1,13.938
"47","X30",0,0,2.948
"48","X30",1,1,5.461
"49","X30",1,1,10.4
"50","X30",0,0,6.501
"51","X30",1,1,17.448
"53","X30",0,1,8.768
"54","X30",1,1,4.261
"55","X30",1,1,3.766
"56","X30",0,0,6.807
"57","X30",1,1,2.799
"59","X30",0,0,9.792
"60","X30",1,0,3.072
"61","X30",0,0,4.513
"62","X30",0,1,7.4
"63","X30",0,0,2.914
"64","X30",0,1,4.368
"65","X30",0,0,3.263
"66","X30",1,0,2.384
"67","X30",0,0,4.459
"68","X30",1,1,4.463
"69","X30",1,1,4.6
"70","X30",1,1,9.824
"71","X30",1,0,1.677
"72","X30",0,0,15.688
"73","X30",1,0,8.816
"74","X30",1,1,5.241
"75","X30",0,0,11.504
"76","X30",1,1,6.881
"78","X30",1,1,2.291
"79","X30",1,1,2.172
"80","X30",1,1,2.616
"81","X30",1,1,15.04
"82","X30",1,1,50.402
"83","X30",1,0,2.548
"84","X30",1,1,4.743
"85","X30",1,1,4.06
"86","X30",0,1,2.27
"88","X30",0,0,2.181
"89","X30",1,0,7.398
"90","X30",1,1,3.338
"92","X30",0,1,20
"93","X30",0,0,10.084
"94","X30",1,0,2.656
"95","X30",0,1,2.071
"96","X30",1,0,17.512
"97","X30",1,1,14.737
"98","X30",0,1,5.598
"99","X30",1,0,3.925
"100","X30",1,1,2.624
"2","X31",0,0,2.136
"3","X31",1,1,2.828
"4","X31",0,0,3.329
"6","X31",1,1,2.336
"7","X31",1,1,1.68
"8","X31",1,0,5.415
"9","X31",1,1,5.573
"11","X31",0,0,3.841
"12","X31",1,1,4.314
"13","X31",1,1,5.201
"14","X31",0,1,1.933
"15","X31",1,1,5.43
"16","X31",1,1,4.568
"17","X31",1,1,10.033
"18","X31",1,1,3.412
"19","X31",1,1,1.658
"20","X31",0,1,2.002
"21","X31",1,1,2.031
"22","X31",0,0,5.217
"23","X31",1,1,2.877
"24","X31",1,1,11.83
"25","X31",1,0,2.369
"26","X31",0,0,5.192
"27","X31",1,0,12.752
"28","X31",1,1,7.661
"29","X31",1,0,8.268
"30","X31",0,0,2.927
"31","X31",0,0,10.09
"32","X31",0,0,14.112
"33","X31",0,0,12.481
"34","X31",0,0,2.296
"37","X31",0,0,1.875
"38","X31",1,1,11.03
"39","X31",0,0,8.452
"40","X31",0,0,6.767
"41","X31",1,1,11.828
"42","X31",0,0,35.492
"43","X31",0,0,3.118
"44","X31",0,1,1.807
"45","X31",0,0,14.864
"46","X31",1,1,5.927
"47","X31",1,1,3.202
"48","X31",0,0,5.6
"49","X31",1,1,5.776
"50","X31",1,0,3.982
"51","X31",0,0,47.449
"53","X31",1,1,2.21
"54","X31",1,1,3.993
"55","X31",0,1,2.672
"56","X31",1,1,8.478
"57","X31",1,0,2.41
"58","X31",1,1,10.581
"59","X31",1,0,8.264
"60","X31",1,1,2.072
"61","X31",1,1,2.906
"62","X31",1,0,8.608
"63","X31",0,0,6.596
"64","X31",1,1,4.751
"65","X31",0,1,3.52
"66","X31",0,0,1.711
"67","X31",0,1,7.218
"68","X31",1,1,4.16
"69","X31",1,1,4.488
"70","X31",1,1,12.912
"71","X31",0,0,9.55
"72","X31",0,0,9.183
"74","X31",1,1,11.729
"75","X31",1,1,7.616
"76","X31",0,0,10.047
"78","X31",0,0,3.624
"79","X31",0,1,2.394
"80","X31",1,1,14.184
"81","X31",0,0,17.361
"82","X31",0,0,11.676
"83","X31",1,0,13.824
"84","X31",1,1,14.599
"85","X31",0,1,5.064
"86","X31",1,0,2.831
"88","X31",1,1,2.255
"89","X31",1,1,10.81
"90","X31",1,1,1.614
"91","X31",0,0,19.114
"92","X31",1,1,4.776
"93","X31",0,0,6.177
"94","X31",0,0,4.051
"95","X31",0,0,3.141
"96","X31",1,1,4.501
"97","X31",1,1,10.776
"98","X31",0,1,6.381
"99","X31",1,1,3.16
"100","X31",0,0,2.93
"2","X32",1,1,1.896
"3","X32",0,0,4.345
"4","X32",0,1,8.388
"6","X32",1,0,2.384
"7","X32",0,0,2.208
"8","X32",1,1,4.944
"9","X32",1,0,12.067
"11","X32",1,1,1.552
"12","X32",0,1,7.605
"13","X32",1,0,5.404
"14","X32",1,1,1.728
"15","X32",1,0,8.724
"16","X32",1,1,4.528
"17","X32",0,0,6.92
"18","X32",0,1,5.335
"19","X32",0,0,4.015
"20","X32",0,1,1.667
"21","X32",1,0,3.728
"22","X32",0,0,4.276
"23","X32",0,0,2.458
"24","X32",0,1,11.104
"25","X32",0,0,1.583
"26","X32",1,0,10.874
"27","X32",0,1,2.622
"28","X32",1,1,2.801
"29","X32",1,1,7.831
"30","X32",0,0,3.744
"31","X32",1,1,10.021
"32","X32",1,1,4.352
"33","X32",0,0,11.013
"34","X32",0,0,5.231
"36","X32",1,1,0.705
"37","X32",1,1,1.041
"38","X32",0,1,6.225
"39","X32",1,1,5.616
"40","X32",0,0,9.444
"41","X32",1,1,11.353
"42","X32",1,0,5.926
"43","X32",1,1,1.384
"44","X32",1,1,1.099
"45","X32",0,0,9.392
"46","X32",0,0,5.561
"47","X32",1,0,2.984
"48","X32",0,0,34.048
"49","X32",1,1,9.281
"50","X32",1,0,8.068
"51","X32",0,0,33.507
"53","X32",1,1,3.505
"54","X32",0,1,4.287
"55","X32",0,0,4.191
"56","X32",0,0,29.978
"57","X32",0,1,2.922
"58","X32",1,1,4.097
"59","X32",0,0,13.136
"60","X32",1,0,5.931
"61","X32",1,1,4.432
"62","X32",1,1,8.296
"63","X32",0,0,5.147
"64","X32",1,1,3.014
"65","X32",0,1,2.568
"66","X32",0,0,1.535
"67","X32",1,0,2.986
"68","X32",1,1,12.408
"69","X32",0,0,9.417
"70","X32",0,0,10.144
"71","X32",1,1,7.681
"72","X32",0,0,9.327
"73","X32",0,0,3.815
"74","X32",1,1,11.145
"75","X32",1,1,8.117
"76","X32",0,0,4.153
"78","X32",1,1,3.168
"79","X32",1,0,2.25
"80","X32",1,1,14.344
"81","X32",0,0,3.753
"82","X32",0,0,7.176
"83","X32",0,0,2.977
"84","X32",0,0,10.982
"85","X32",0,0,2.301
"86","X32",0,0,1.913
"88","X32",1,0,3.844
"89","X32",0,0,9.752
"90","X32",1,1,1.75
"91","X32",0,0,7.075
"92","X32",1,1,4.544
"93","X32",0,1,3.391
"94","X32",0,0,2.706
"95","X32",0,0,13.645
"96","X32",0,0,3.02
"97","X32",0,0,9.48
"98","X32",1,0,8.975
"99","X32",1,1,3.586
"100","X32",0,0,3.93
"2","X33",0,1,1.276
"3","X33",0,0,8.886
"4","X33",1,1,2.8
"6","X33",1,1,2.609
"7","X33",1,1,1.208
"8","X33",0,0,2.887
"9","X33",0,1,6.138
"11","X33",0,1,1.248
"12","X33",0,0,2.338
"14","X33",0,1,2.939
"15","X33",0,0,12.088
"16","X33",1,1,6.776
"17","X33",1,1,5.301
"18","X33",0,0,11.805
"19","X33",1,1,4.92
"20","X33",0,0,1.886
"21","X33",1,0,3.486
"22","X33",0,0,3.24
"23","X33",1,1,2.618
"24","X33",0,1,11.439
"25","X33",1,1,1.888
"26","X33",0,0,3.237
"27","X33",0,0,10.019
"28","X33",0,0,4.249
"29","X33",1,1,10.117
"30","X33",0,0,1.744
"31","X33",1,1,7.577
"32","X33",0,0,1.632
"33","X33",0,0,16.335
"34","X33",0,0,5.212
"36","X33",0,0,0.944
"37","X33",0,1,1.036
"38","X33",1,1,6.672
"39","X33",0,1,7.462
"40","X33",0,0,8.049
"41","X33",1,1,9.002
"42","X33",0,0,29.592
"43","X33",1,0,1.047
"44","X33",1,0,1.158
"45","X33",1,1,8.553
"46","X33",0,1,8.935
"47","X33",1,0,2.676
"48","X33",1,0,13.632
"49","X33",0,0,6.168
"50","X33",0,0,11.399
"53","X33",0,0,5.672
"54","X33",1,0,5.215
"55","X33",0,0,4.467
"56","X33",1,1,11.813
"57","X33",1,1,2.926
"58","X33",0,0,2.433
"59","X33",0,1,14.065
"60","X33",1,1,9.716
"61","X33",1,0,3.368
"62","X33",1,0,6.379
"63","X33",1,1,4.734
"64","X33",0,0,3.285
"65","X33",1,0,3.72
"66","X33",0,1,2.006
"67","X33",0,0,4.066
"68","X33",1,1,4.655
"69","X33",1,1,17
"70","X33",1,1,7.352
"71","X33",1,1,2.193
"72","X33",1,1,11.336
"73","X33",0,1,2.967
"74","X33",1,1,11.809
"75","X33",1,1,4.607
"76","X33",0,0,4.032
"78","X33",1,1,2.355
"79","X33",1,0,2.556
"80","X33",1,1,7.68
"81","X33",1,1,6.96
"82","X33",1,1,4.7
"83","X33",1,1,5.305
"84","X33",1,0,6.689
"85","X33",1,1,5.389
"86","X33",1,1,2.131
"88","X33",0,1,1.457
"89","X33",1,1,15.295
"90","X33",1,0,1.552
"91","X33",1,1,18.573
"92","X33",1,0,13.512
"93","X33",1,1,7.728
"95","X33",1,1,1.148
"96","X33",0,1,7.625
"97","X33",0,0,12.897
"98","X33",1,0,3.34
"99","X33",0,0,2.919
"100","X33",1,1,4.585
"2","X34",1,0,0.596
"3","X34",1,1,5.856
"4","X34",0,0,4.337
"6","X34",1,1,2.128
"7","X34",0,1,1.792
"8","X34",0,1,4.368
"9","X34",1,0,6.209
"11","X34",0,1,1.736
"12","X34",1,0,5.326
"14","X34",0,0,2.227
"15","X34",0,0,17.948
"16","X34",1,0,7.615
"17","X34",0,0,4.358
"18","X34",1,1,7.859
"19","X34",1,1,4.43
"20","X34",1,1,3.155
"21","X34",1,1,5.281
"22","X34",1,1,2.033
"23","X34",0,1,2.06
"24","X34",0,1,10.316
"25","X34",1,1,2.56
"26","X34",0,0,9.374
"27","X34",0,0,5.035
"28","X34",1,1,4.866
"29","X34",1,1,11.006
"30","X34",0,0,4.782
"31","X34",0,0,8.374
"32","X34",1,1,1.616
"33","X34",0,0,11.432
"34","X34",1,0,4.613
"36","X34",0,1,1.052
"37","X34",1,0,1.031
"38","X34",1,1,12.468
"39","X34",1,1,10.009
"40","X34",1,1,6.372
"41","X34",0,0,20.309
"42","X34",1,1,7.768
"43","X34",1,1,1.114
"44","X34",1,1,1.92
"46","X34",0,0,8.72
"47","X34",0,0,1.674
"48","X34",0,1,2.263
"49","X34",1,1,9.239
"50","X34",1,1,11.344
"51","X34",1,1,17.14
"53","X34",1,1,7.135
"54","X34",0,1,2.154
"55","X34",0,1,18.487
"56","X34",0,0,9.039
"57","X34",1,1,3.187
"58","X34",1,1,9.633
"59","X34",1,1,9.424
"60","X34",0,0,1.692
"61","X34",0,0,3.28
"62","X34",1,1,7.114
"63","X34",1,0,6.727
"64","X34",1,1,4.822
"65","X34",0,1,3.04
"66","X34",1,1,1.698
"67","X34",0,0,2.595
"68","X34",0,0,7.312
"69","X34",0,1,4.768
"70","X34",1,1,12.279
"71","X34",1,0,1.87
"72","X34",0,0,4.985
"73","X34",1,0,7.819
"74","X34",1,1,3.73
"75","X34",1,1,9.68
"76","X34",0,0,2.712
"78","X34",1,1,3.051
"79","X34",0,1,3.118
"80","X34",1,1,1.952
"81","X34",1,1,11.943
"82","X34",1,1,4.624
"83","X34",0,0,4.474
"84","X34",1,1,8.44
"85","X34",1,1,5.734
"86","X34",1,1,1.454
"89","X34",0,0,4.653
"90","X34",1,1,1.812
"91","X34",0,0,13.6
"92","X34",0,1,10.202
"93","X34",1,1,3.82
"94","X34",1,1,8.714
"95","X34",0,0,2.976
"96","X34",0,1,3.137
"97","X34",1,0,13.463
"98","X34",0,1,4.495
"100","X34",1,0,2.655
"2","X35",0,0,1.448
"3","X35",1,1,2.872
"4","X35",0,1,4.73
"6","X35",0,0,1.88
"7","X35",0,0,1.4
"8","X35",0,1,3.968
"9","X35",0,1,3.94
"11","X35",1,1,2.772
"12","X35",0,0,2.86
"13","X35",0,1,6.357
"14","X35",0,1,3.459
"15","X35",0,0,8.957
"16","X35",0,0,11.504
"17","X35",1,1,4.874
"18","X35",1,1,5.884
"19","X35",1,1,8.893
"20","X35",1,1,1.62
"21","X35",1,1,3.108
"22","X35",0,0,2.032
"23","X35",1,1,7.385
"25","X35",1,0,2.391
"26","X35",1,1,4.521
"27","X35",1,1,5.066
"28","X35",0,1,8.428
"29","X35",1,1,8.553
"31","X35",0,0,8.455
"32","X35",0,0,1.648
"33","X35",0,0,11.885
"34","X35",0,0,2.906
"36","X35",0,0,0.918
"38","X35",1,1,4.944
"39","X35",0,0,5.952
"40","X35",1,1,4
"41","X35",0,0,13.188
"42","X35",1,1,23.426
"43","X35",0,0,2.904
"44","X35",1,1,1.22
"45","X35",0,1,8.736
"46","X35",1,1,6.373
"47","X35",0,0,2.086
"48","X35",1,1,16.094
"49","X35",0,0,6.913
"50","X35",0,0,17.877
"51","X35",1,1,20.535
"53","X35",1,1,2.783
"54","X35",0,0,1.807
"55","X35",0,1,3.363
"56","X35",0,0,7.59
"57","X35",0,0,5.799
"58","X35",1,1,3.39
"59","X35",0,0,8.4
"60","X35",1,1,2.313
"61","X35",1,0,3.833
"62","X35",1,0,4.72
"63","X35",0,1,8.463
"64","X35",0,0,3.434
"65","X35",1,1,3.495
"66","X35",0,0,2.344
"67","X35",1,1,3.26
"68","X35",1,1,8.015
"69","X35",0,1,7.352
"70","X35",1,1,6.591
"71","X35",1,0,2.181
"72","X35",1,1,5.913
"73","X35",0,1,2.2
"74","X35",0,0,11.56
"75","X35",1,1,3.648
"76","X35",0,1,4.384
"78","X35",0,1,1.791
"79","X35",0,1,3.422
"80","X35",0,1,2.095
"81","X35",1,1,6.663
"82","X35",0,0,14.575
"83","X35",0,0,10.806
"84","X35",1,1,11.103
"85","X35",1,1,3.399
"86","X35",0,0,2.586
"88","X35",0,0,2.599
"89","X35",0,0,7.436
"90","X35",0,1,1.799
"91","X35",1,1,9.87
"92","X35",1,1,11.44
"93","X35",1,1,5.095
"94","X35",1,1,6.311
"95","X35",0,0,4.274
"96","X35",0,1,6.343
"97","X35",0,0,9.784
"98","X35",1,1,4.444
"99","X35",0,1,3.584
"100","X35",0,1,3.811
"2","X36",1,1,1.695
"3","X36",1,1,5.297
"4","X36",0,0,2.456
"6","X36",0,1,7.459
"7","X36",0,0,2.055
"8","X36",0,0,3.88
"9","X36",1,1,5.16
"11","X36",1,1,3.233
"12","X36",1,1,4.131
"13","X36",1,1,7.931
"14","X36",0,1,2.913
"15","X36",1,1,7.372
"16","X36",0,0,11.425
"17","X36",0,0,3.797
"18","X36",0,0,5.579
"19","X36",0,1,3.376
"20","X36",1,0,1.554
"21","X36",1,1,3.755
"22","X36",0,1,3.684
"23","X36",1,1,12.391
"24","X36",1,1,7.583
"25","X36",0,0,2.417
"26","X36",0,0,4.409
"27","X36",1,1,4.141
"28","X36",0,0,5.346
"29","X36",0,0,20.877
"30","X36",1,1,1.865
"31","X36",0,1,12.38
"32","X36",1,1,2.256
"33","X36",1,1,6.005
"34","X36",1,1,1.833
"36","X36",0,1,1.101
"37","X36",0,1,1.74
"38","X36",1,1,13.495
"39","X36",0,0,4.831
"40","X36",1,1,8.127
"41","X36",1,1,3.743
"42","X36",0,0,13.472
"43","X36",0,1,1.161
"44","X36",1,1,1.954
"45","X36",1,0,10.951
"46","X36",0,1,7.219
"47","X36",1,1,2.154
"48","X36",0,0,32.931
"49","X36",0,0,7.183
"50","X36",1,1,60.248
"51","X36",1,1,14.176
"53","X36",1,0,4.777
"54","X36",0,1,2.648
"55","X36",0,0,2.052
"56","X36",1,1,4.535
"57","X36",1,1,2.577
"58","X36",0,0,6.584
"59","X36",1,1,15.44
"60","X36",0,1,2.195
"61","X36",0,1,2.279
"62","X36",1,0,6.616
"63","X36",0,1,7.647
"64","X36",0,0,3.834
"65","X36",0,1,1.92
"66","X36",0,1,2.367
"67","X36",1,0,2.594
"68","X36",0,1,6.167
"69","X36",1,1,7.377
"70","X36",0,0,13.703
"71","X36",1,0,6.264
"72","X36",0,0,6.176
"73","X36",1,1,3.944
"74","X36",1,1,8.416
"75","X36",1,1,6.544
"76","X36",1,1,5.598
"78","X36",0,0,2.392
"79","X36",0,0,2.765
"80","X36",0,0,5.304
"81","X36",0,0,18.799
"82","X36",0,0,8.787
"83","X36",1,1,2.886
"84","X36",1,1,8.783
"85","X36",1,0,5.071
"86","X36",0,0,1.893
"88","X36",1,1,1.612
"89","X36",1,1,9.547
"92","X36",1,1,9.288
"93","X36",0,0,8.617
"94","X36",1,1,4.744
"95","X36",1,1,1.7
"96","X36",1,1,4.564
"97","X36",0,0,7.192
"98","X36",1,1,4.233
"99","X36",1,1,1.947
"100","X36",0,1,3.035
"2","X37",1,1,1.228
"3","X37",1,1,1.944
"4","X37",1,1,1.544
"6","X37",1,0,2.273
"7","X37",1,0,1.464
"8","X37",0,1,2.904
"9","X37",0,0,6.836
"11","X37",0,1,2.586
"12","X37",0,0,4.715
"13","X37",1,1,5.323
"14","X37",1,1,3.038
"15","X37",1,1,34.969
"16","X37",1,1,5.671
"17","X37",1,1,3.01
"18","X37",0,0,4.655
"19","X37",1,1,1.803
"20","X37",0,1,2.547
"21","X37",0,0,3.923
"22","X37",0,0,3.442
"23","X37",1,0,3.512
"24","X37",1,1,8.77
"25","X37",1,1,3.009
"26","X37",0,0,2.572
"27","X37",0,0,5.151
"28","X37",0,0,5.469
"29","X37",0,0,5.245
"30","X37",1,1,1.241
"31","X37",1,1,7.485
"32","X37",1,1,3.52
"33","X37",0,0,16.006
"34","X37",1,0,10.681
"36","X37",0,0,1.622
"37","X37",0,1,2.408
"38","X37",1,1,8.344
"39","X37",0,0,5.355
"40","X37",0,0,13.413
"41","X37",1,1,8.719
"42","X37",1,1,18.076
"43","X37",1,0,2.226
"44","X37",0,1,1.28
"45","X37",1,1,4.088
"46","X37",0,0,8.266
"47","X37",0,0,2.347
"48","X37",1,1,2.2
"49","X37",1,1,7.169
"50","X37",0,1,8.334
"51","X37",1,1,5.82
"53","X37",0,1,2.48
"54","X37",0,1,3.271
"55","X37",0,0,1.957
"56","X37",1,1,13.029
"57","X37",0,0,2.906
"58","X37",1,1,13.222
"59","X37",0,0,5.541
"60","X37",0,0,5.545
"61","X37",0,0,3.105
"62","X37",0,0,7.42
"63","X37",0,0,3.125
"64","X37",1,1,4.655
"65","X37",0,0,2.816
"66","X37",0,1,2.273
"67","X37",1,1,5.319
"68","X37",1,1,6.128
"69","X37",0,0,7.112
"70","X37",1,1,10.121
"71","X37",1,0,2.686
"72","X37",0,0,6.816
"73","X37",1,1,4.584
"74","X37",1,1,10.241
"75","X37",1,1,14.768
"76","X37",1,1,8.328
"78","X37",1,1,2.256
"79","X37",0,1,3.935
"80","X37",0,1,16.215
"81","X37",0,0,11.737
"82","X37",0,0,13.973
"83","X37",1,1,5.623
"84","X37",1,1,4.312
"85","X37",0,1,3.971
"86","X37",1,0,2.802
"88","X37",1,1,2.235
"89","X37",1,1,4.091
"90","X37",0,1,1.855
"91","X37",0,0,10.527
"92","X37",0,0,6.096
"93","X37",0,0,11.098
"94","X37",1,1,9.2
"95","X37",0,0,3.017
"96","X37",0,0,3.861
"97","X37",1,1,10.209
"98","X37",0,0,9.65
"99","X37",0,0,1.354
"100","X37",0,1,5.379
"2","X38",1,0,1.4
"3","X38",1,0,3.865
"4","X38",1,1,1.992
"6","X38",1,1,1.673
"7","X38",1,1,2.18
"8","X38",1,1,2.104
"9","X38",1,1,5.138
"11","X38",0,0,4.376
"12","X38",1,0,9.515
"14","X38",1,1,1.294
"15","X38",0,0,23.774
"16","X38",0,0,7.289
"17","X38",0,0,8.96
"18","X38",0,0,16.159
"19","X38",1,1,2.579
"20","X38",0,1,3.385
"21","X38",0,0,2.226
"22","X38",0,0,2.075
"23","X38",1,1,7.107
"24","X38",0,0,5.83
"25","X38",1,1,1.744
"26","X38",0,1,10.347
"27","X38",1,0,9.346
"28","X38",1,1,3.613
"29","X38",0,0,11.092
"31","X38",1,1,5.402
"32","X38",0,0,5.808
"33","X38",1,1,4.683
"34","X38",1,0,3.909
"36","X38",0,0,1.344
"37","X38",0,1,1.566
"38","X38",0,0,6.755
"39","X38",1,0,8.537
"40","X38",0,0,5.544
"42","X38",1,1,10.673
"43","X38",0,1,1.047
"44","X38",0,0,1.087
"45","X38",1,1,11.24
"46","X38",0,1,2.786
"47","X38",0,0,2.911
"48","X38",1,1,5.712
"49","X38",0,1,10.312
"50","X38",1,1,9.208
"51","X38",1,1,10.996
"53","X38",0,0,6.696
"54","X38",0,1,3.527
"55","X38",0,0,4.654
"56","X38",1,1,10.054
"57","X38",0,1,3.377
"58","X38",1,1,9.523
"59","X38",0,0,9.328
"60","X38",1,0,2.823
"61","X38",1,0,4.737
"62","X38",0,0,10.248
"63","X38",1,1,5.056
"64","X38",0,1,4.469
"65","X38",1,1,2.379
"66","X38",1,0,2.937
"67","X38",1,1,2.527
"68","X38",1,1,8.463
"69","X38",0,0,5.264
"70","X38",1,1,7.735
"71","X38",0,0,4.179
"72","X38",1,1,3.348
"73","X38",0,0,5.792
"74","X38",1,1,18.625
"75","X38",1,1,3.264
"76","X38",0,0,3.982
"78","X38",0,0,2.256
"79","X38",0,1,3.624
"80","X38",0,0,7.007
"81","X38",0,0,6.287
"82","X38",1,0,16.286
"83","X38",1,0,2.385
"84","X38",0,1,7.704
"85","X38",0,0,3.839
"86","X38",1,1,2.448
"88","X38",0,1,3.196
"89","X38",1,1,8.672
"90","X38",1,1,3.413
"91","X38",1,1,14.083
"92","X38",0,0,10.296
"93","X38",0,0,13.56
"94","X38",1,1,2.763
"95","X38",1,1,2.682
"96","X38",1,1,2.335
"97","X38",1,1,7.776
"98","X38",0,1,18.848
"99","X38",1,1,2.347
"100","X38",0,0,3.411
"2","X39",0,1,1.564
"3","X39",1,1,3.783
"4","X39",0,0,2.33
"6","X39",1,0,2.961
"7","X39",1,0,1.736
"8","X39",1,1,2.68
"9","X39",1,1,5.302
"11","X39",1,1,2.056
"12","X39",1,1,3.634
"13","X39",0,0,3.673
"14","X39",1,1,4.159
"15","X39",1,1,7.094
"16","X39",0,0,6.551
"17","X39",1,1,2.702
"18","X39",1,1,1.861
"19","X39",1,1,3.822
"20","X39",0,0,1.95
"21","X39",0,1,3.22
"22","X39",1,0,2.84
"24","X39",1,1,15.043
"25","X39",0,0,2.207
"26","X39",0,0,6.359
"27","X39",0,1,2.688
"28","X39",1,0,4.269
"29","X39",0,0,9.996
"30","X39",1,1,1.414
"31","X39",1,0,6.656
"32","X39",1,0,6.127
"33","X39",0,0,20.974
"34","X39",0,1,14.617
"36","X39",1,1,1.879
"37","X39",0,0,2.244
"38","X39",0,0,7.895
"39","X39",1,1,7.605
"40","X39",1,1,10.44
"41","X39",1,1,4.562
"42","X39",0,0,6.715
"43","X39",0,0,2.127
"44","X39",0,1,1.189
"45","X39",1,1,9.104
"46","X39",0,0,2.103
"47","X39",0,0,3.454
"48","X39",1,1,14.478
"49","X39",1,1,7.576
"50","X39",1,1,5.274
"51","X39",1,1,12.144
"53","X39",1,1,6.474
"54","X39",1,0,4.682
"55","X39",0,0,11.64
"56","X39",0,0,2.912
"57","X39",1,1,9.044
"58","X39",1,1,12.046
"59","X39",0,0,4.96
"60","X39",1,1,4.183
"61","X39",1,1,2.865
"62","X39",1,0,4.544
"63","X39",1,0,7.88
"64","X39",1,1,3.184
"65","X39",0,1,3.84
"66","X39",0,1,2.532
"67","X39",1,1,2.361
"68","X39",1,0,5.44
"69","X39",0,0,11.52
"70","X39",1,1,6.128
"71","X39",0,0,3.46
"72","X39",1,1,8.416
"73","X39",1,0,12.098
"74","X39",0,0,4.744
"75","X39",0,1,18.896
"76","X39",0,0,6.745
"78","X39",0,0,2.027
"79","X39",0,1,4.312
"80","X39",0,0,4.232
"81","X39",1,0,13.247
"82","X39",0,0,9.186
"83","X39",0,0,4.331
"84","X39",0,1,11.169
"86","X39",1,0,4.029
"88","X39",0,1,4.233
"89","X39",0,0,15.368
"90","X39",0,1,2.854
"91","X39",1,1,18.405
"92","X39",0,0,5.28
"93","X39",1,1,5.018
"94","X39",0,0,13.003
"95","X39",1,1,3.452
"96","X39",1,0,5.729
"97","X39",0,1,14.52
"98","X39",0,0,5.34
"99","X39",1,1,6.798
"100","X39",0,0,3.577
"2","X40",1,1,1.512
"3","X40",1,0,4.32
"4","X40",0,0,1.785
"6","X40",1,1,1.648
"7","X40",1,1,17.792
"8","X40",1,0,5.936
"9","X40",0,0,6.204
"11","X40",0,1,3.449
"12","X40",0,0,4.378
"13","X40",1,1,7.487
"14","X40",0,1,3.754
"15","X40",0,0,14.004
"16","X40",0,1,6.239
"17","X40",0,0,3.142
"18","X40",0,1,12.047
"19","X40",1,1,3.024
"20","X40",1,1,1.622
"21","X40",1,1,5.656
"22","X40",1,1,1.946
"23","X40",1,1,2.289
"24","X40",0,1,9.522
"25","X40",0,1,2.384
"26","X40",0,1,7.491
"27","X40",1,1,3.344
"28","X40",1,1,9.281
"29","X40",0,1,17
"30","X40",0,1,3.257
"31","X40",0,0,7.169
"32","X40",0,1,4.752
"33","X40",1,1,6.329
"34","X40",0,0,11.177
"36","X40",0,1,1.767
"37","X40",0,0,2.131
"38","X40",1,0,8.49
"39","X40",0,1,8.505
"40","X40",0,0,6.568
"41","X40",0,0,9.383
"42","X40",0,1,23.484
"43","X40",1,1,1.111
"44","X40",1,1,1.52
"45","X40",1,0,10.088
"46","X40",1,1,2.607
"47","X40",0,0,3.39
"48","X40",1,1,13.296
"49","X40",0,0,6.656
"50","X40",1,1,3.577
"51","X40",1,1,26.823
"53","X40",1,1,2.392
"54","X40",0,0,5.119
"55","X40",1,0,8.303
"56","X40",0,0,6.871
"57","X40",0,0,16.737
"58","X40",0,0,10.186
"59","X40",1,1,8.055
"60","X40",0,0,7.87
"61","X40",0,1,2.256
"62","X40",1,0,8.655
"63","X40",0,0,10.74
"64","X40",1,1,6.334
"65","X40",0,1,2.408
"66","X40",1,0,1.742
"67","X40",1,1,6.338
"68","X40",0,0,3.623
"69","X40",1,1,12.928
"70","X40",1,1,4.921
"71","X40",0,1,2.241
"72","X40",0,0,9.632
"73","X40",1,1,3.201
"74","X40",0,0,16.921
"75","X40",1,1,4.912
"76","X40",1,0,10.423
"78","X40",1,0,2.528
"79","X40",1,0,3.509
"80","X40",1,1,2.608
"81","X40",1,1,4.175
"82","X40",1,0,13.252
"83","X40",0,1,8.572
"84","X40",1,1,3.367
"85","X40",0,0,2.621
"86","X40",0,1,1.616
"88","X40",0,1,3.047
"89","X40",1,0,5.686
"90","X40",1,1,1.872
"91","X40",0,0,8.648
"92","X40",1,1,8.968
"93","X40",0,1,3.926
"94","X40",1,0,4.064
"95","X40",1,1,9.656
"96","X40",1,1,5.276
"97","X40",0,0,10.199
"98","X40",1,1,5.006
"99","X40",0,0,4.311
"100","X40",0,1,2.086
"2","X41",0,1,1.952
"3","X41",0,0,3.143
"4","X41",1,1,3.608
"6","X41",1,1,2.392
"7","X41",0,0,1.501
"8","X41",0,0,2.184
"9","X41",0,1,4.194
"11","X41",1,1,3.118
"12","X41",0,0,4.415
"13","X41",1,1,8.248
"14","X41",1,1,4.55
"15","X41",0,0,18.155
"16","X41",0,0,17.543
"17","X41",1,1,4.612
"18","X41",1,1,2.253
"19","X41",0,1,5.761
"20","X41",1,1,4.374
"21","X41",0,0,3.968
"22","X41",0,0,3.648
"23","X41",1,1,5.106
"24","X41",0,0,5.859
"25","X41",0,0,1.759
"26","X41",1,1,8.681
"27","X41",0,0,5.009
"28","X41",0,0,5.719
"29","X41",0,0,7.995
"30","X41",0,0,1.878
"31","X41",0,0,4.754
"32","X41",0,0,2.368
"33","X41",1,1,6.426
"34","X41",1,1,1.817
"36","X41",1,1,1.477
"37","X41",1,1,2.176
"38","X41",0,0,5.403
"39","X41",0,1,11.792
"40","X41",0,0,4.596
"41","X41",0,0,15.468
"42","X41",1,1,13.084
"43","X41",0,0,1.543
"44","X41",0,1,2.058
"45","X41",1,1,8.472
"46","X41",0,0,2.142
"47","X41",0,0,9.238
"48","X41",1,1,2.108
"49","X41",0,0,13.48
"50","X41",0,0,7.698
"51","X41",0,0,10.08
"53","X41",0,0,6.649
"54","X41",1,0,4.025
"55","X41",1,1,6.721
"56","X41",0,0,17.269
"57","X41",1,0,3.252
"58","X41",0,1,10.708
"59","X41",0,0,11.023
"60","X41",1,0,2.61
"61","X41",1,1,4.84
"62","X41",0,0,7.176
"63","X41",1,1,4.881
"64","X41",1,1,7.826
"65","X41",0,0,2.704
"66","X41",1,0,2.303
"67","X41",1,1,3.188
"68","X41",1,0,8.32
"69","X41",0,0,9.554
"70","X41",1,1,7.567
"71","X41",1,1,4.298
"72","X41",0,0,7.759
"73","X41",1,1,5.696
"74","X41",0,0,6.24
"75","X41",1,1,7.903
"76","X41",1,1,5.192
"78","X41",0,0,3.356
"79","X41",1,0,3.022
"80","X41",1,1,11.681
"81","X41",0,0,13.139
"82","X41",0,0,12.049
"83","X41",1,0,23.407
"84","X41",0,0,12.192
"85","X41",0,1,5.493
"86","X41",0,1,2.435
"88","X41",0,0,4.315
"89","X41",1,0,12.314
"90","X41",1,0,2.8
"91","X41",0,0,17.576
"92","X41",0,0,7.226
"93","X41",1,1,7.901
"94","X41",1,0,4.596
"95","X41",0,0,10.087
"96","X41",1,1,3.971
"97","X41",1,1,14.592
"98","X41",0,0,4.545
"100","X41",1,1,4.042
"2","X42",0,0,1.472
"3","X42",0,0,3.889
"4","X42",0,0,4.504
"6","X42",0,0,2.392
"7","X42",1,1,1.751
"8","X42",1,1,2.521
"9","X42",0,0,7.606
"11","X42",0,0,2.717
"12","X42",1,1,6.054
"14","X42",1,1,2.183
"15","X42",0,0,7.749
"16","X42",1,1,9.054
"17","X42",0,1,12.348
"18","X42",1,1,7.85
"19","X42",0,1,5.353
"20","X42",1,1,2.856
"21","X42",1,0,2.447
"22","X42",0,0,6.147
"23","X42",1,1,8.908
"24","X42",1,0,5.071
"25","X42",1,1,1.703
"26","X42",0,1,4.745
"27","X42",1,1,7.168
"28","X42",1,0,4.44
"29","X42",0,1,6.653
"30","X42",0,0,2.644
"31","X42",1,1,6.594
"32","X42",0,1,2.481
"33","X42",0,0,15.711
"34","X42",0,0,3.368
"36","X42",1,0,1.26
"37","X42",1,1,2.211
"38","X42",1,0,7.483
"39","X42",1,0,5.161
"40","X42",1,0,5.774
"41","X42",1,1,13.609
"42","X42",1,1,5.954
"43","X42",1,1,1.775
"44","X42",0,1,1.165
"45","X42",0,0,15.521
"46","X42",0,0,4.305
"47","X42",1,0,4.286
"48","X42",1,0,11.632
"49","X42",1,0,4.504
"50","X42",0,1,4.639
"51","X42",0,0,14.85
"53","X42",1,1,5.64
"54","X42",0,1,4.6
"55","X42",1,1,2.407
"56","X42",0,1,5.391
"57","X42",1,1,8.857
"58","X42",1,1,2.09
"59","X42",0,0,9.288
"60","X42",0,0,5.486
"61","X42",1,1,3.769
"63","X42",1,1,3.553
"64","X42",0,0,2.205
"65","X42",0,0,3.568
"66","X42",1,1,1.703
"67","X42",1,1,5.741
"68","X42",1,1,4.576
"69","X42",1,1,17.984
"70","X42",1,0,6.376
"71","X42",1,1,3.925
"72","X42",0,0,12.015
"73","X42",0,0,4.317
"74","X42",1,1,11.44
"75","X42",0,0,6.976
"76","X42",0,0,3.551
"78","X42",0,0,3.508
"79","X42",0,0,2.973
"80","X42",1,0,7.864
"81","X42",1,0,11.811
"82","X42",1,1,24.788
"83","X42",0,1,4.457
"84","X42",1,1,4.68
"86","X42",1,0,1.808
"88","X42",1,0,3.669
"89","X42",0,0,8.634
"90","X42",0,0,2.492
"91","X42",1,1,12.823
"92","X42",0,1,18.192
"93","X42",0,0,4.851
"94","X42",1,1,5.585
"95","X42",0,1,3.323
"96","X42",1,1,5.96
"97","X42",1,1,14.792
"98","X42",1,0,4.263
"99","X42",0,0,2.365
"100","X42",1,1,3.25
"2","X43",0,0,1.512
"3","X43",1,1,2.063
"4","X43",1,0,7.867
"6","X43",0,0,2.771
"7","X43",0,1,3.296
"8","X43",0,1,7.512
"9","X43",0,1,7.226
"11","X43",0,1,3.176
"12","X43",1,1,4.733
"13","X43",0,0,4.558
"14","X43",0,0,2.974
"15","X43",0,0,8.299
"16","X43",0,0,6.408
"17","X43",0,1,2.077
"18","X43",0,0,3.942
"19","X43",1,0,5.085
"20","X43",1,1,3.283
"21","X43",0,0,2.321
"22","X43",1,1,1.944
"23","X43",1,1,10.242
"24","X43",1,1,4.684
"25","X43",0,0,1.8
"26","X43",1,1,6.162
"27","X43",1,0,5.179
"28","X43",0,0,4.866
"29","X43",1,1,5.473
"31","X43",0,1,3.082
"32","X43",0,0,1.886
"33","X43",1,1,9.607
"34","X43",1,1,4.137
"36","X43",0,1,1.754
"37","X43",0,1,2.045
"38","X43",0,0,6.224
"39","X43",0,0,4.685
"40","X43",1,1,5.134
"41","X43",1,0,6.84
"42","X43",0,0,8.376
"43","X43",0,0,2.319
"44","X43",1,1,1.492
"45","X43",1,1,17.024
"46","X43",0,0,3.871
"47","X43",0,0,3.052
"48","X43",1,1,2.139
"49","X43",1,1,7.056
"50","X43",0,0,8.239
"51","X43",1,1,25.292
"53","X43",0,0,8.193
"54","X43",1,1,4.467
"55","X43",0,0,17.021
"56","X43",0,0,8.847
"57","X43",1,1,2.44
"58","X43",0,1,10.925
"59","X43",1,0,8.784
"60","X43",0,0,7.264
"61","X43",0,0,3.177
"62","X43",0,0,4.776
"63","X43",0,0,7.91
"64","X43",0,0,3.081
"65","X43",1,1,2.407
"66","X43",0,1,1.727
"67","X43",0,0,4.548
"68","X43",1,1,6.152
"69","X43",0,1,7.672
"70","X43",0,1,10.408
"71","X43",0,0,1.695
"72","X43",0,0,8.239
"73","X43",0,0,6.392
"74","X43",0,0,6.695
"75","X43",1,1,7.152
"76","X43",1,1,2.912
"78","X43",1,1,2.227
"79","X43",0,0,2.551
"80","X43",0,1,10.207
"81","X43",0,0,6.872
"82","X43",1,1,6.712
"83","X43",0,0,19.434
"84","X43",0,0,6.088
"85","X43",0,1,3.89
"86","X43",0,0,2.281
"88","X43",0,0,1.853
"89","X43",1,0,4.041
"90","X43",1,1,1.731
"91","X43",0,1,20.541
"92","X43",1,0,6.552
"93","X43",0,1,9.605
"94","X43",0,1,5.095
"95","X43",1,1,2.462
"96","X43",1,1,5.306
"97","X43",1,0,12.944
"98","X43",1,0,3.519
"100","X43",0,1,3.315
"2","X44",0,0,1.32
"3","X44",0,0,4.616
"4","X44",1,1,2.52
"6","X44",1,1,2.118
"7","X44",1,1,1.753
"8","X44",0,0,4.24
"9","X44",0,1,2.656
"11","X44",1,1,1.557
"12","X44",0,1,8.012
"13","X44",0,0,6.498
"14","X44",0,1,5.39
"15","X44",1,0,6.334
"16","X44",0,0,5.632
"17","X44",1,0,3.253
"18","X44",0,0,5.663
"19","X44",0,0,3.76
"20","X44",0,0,3.953
"21","X44",0,0,4.367
"22","X44",1,1,4.616
"23","X44",0,0,2.786
"24","X44",1,1,5.693
"25","X44",1,0,2.295
"26","X44",0,0,7.753
"27","X44",1,1,8.64
"28","X44",1,0,5.458
"29","X44",0,1,5.03
"30","X44",1,0,3.13
"31","X44",0,0,4.488
"32","X44",0,0,2.192
"33","X44",0,0,12.199
"34","X44",1,1,3.009
"36","X44",0,0,1.466
"37","X44",0,1,4.005
"38","X44",1,1,9.527
"39","X44",0,0,3.233
"40","X44",0,0,11.786
"41","X44",1,0,6.783
"42","X44",0,0,9.677
"43","X44",1,1,1.08
"44","X44",0,0,1.25
"45","X44",0,0,7.488
"46","X44",1,1,4.224
"47","X44",1,1,3.177
"48","X44",1,1,4.362
"49","X44",1,1,8.656
"50","X44",1,0,5.582
"51","X44",0,0,22.336
"53","X44",1,0,5.711
"54","X44",0,0,2.946
"55","X44",1,1,2.068
"56","X44",1,0,5.118
"57","X44",1,0,4.238
"58","X44",0,0,2.156
"59","X44",1,1,6.368
"60","X44",0,0,2.133
"61","X44",0,1,3.696
"62","X44",0,1,7.658
"63","X44",1,1,4.48
"64","X44",1,1,5.338
"65","X44",0,1,2.088
"66","X44",0,1,3.081
"67","X44",0,0,7.267
"68","X44",0,0,2.559
"69","X44",1,1,5.512
"70","X44",1,1,6.04
"71","X44",0,1,1.858
"72","X44",1,0,8.728
"73","X44",0,0,4.064
"74","X44",0,0,9.545
"75","X44",0,0,15.92
"76","X44",1,1,5.567
"78","X44",1,1,2.473
"79","X44",0,0,2.75
"80","X44",1,0,11.657
"81","X44",0,0,10.999
"82","X44",1,1,6.139
"83","X44",1,1,28.125
"85","X44",1,1,2.511
"86","X44",0,0,2.299
"89","X44",1,1,4.103
"90","X44",1,1,1.937
"91","X44",0,0,10.944
"92","X44",0,0,12.657
"93","X44",1,1,4.351
"94","X44",0,0,6.533
"95","X44",0,0,3.888
"96","X44",0,1,3.971
"97","X44",1,1,15.545
"98","X44",1,1,6.312
"99","X44",0,1,2.177
"100","X44",0,0,1.802
"2","X45",0,0,0.892
"3","X45",1,1,2.282
"4","X45",1,1,6.74
"6","X45",0,1,2.813
"7","X45",0,0,2.328
"8","X45",0,0,3.176
"9","X45",0,1,7.64
"12","X45",0,0,4.367
"14","X45",0,1,2.188
"15","X45",0,0,7.602
"16","X45",1,1,4.215
"17","X45",0,0,8.252
"18","X45",0,1,4.555
"19","X45",1,0,3.542
"20","X45",1,0,5.122
"21","X45",0,0,3.2
"22","X45",1,0,3.458
"23","X45",1,0,3.613
"24","X45",1,1,8.35
"25","X45",1,0,3.088
"26","X45",1,1,3.541
"27","X45",0,0,4.856
"28","X45",1,0,5.11
"29","X45",0,0,9.704
"30","X45",1,1,1.449
"31","X45",0,0,5.039
"32","X45",1,1,3.072
"33","X45",1,1,7.238
"34","X45",0,0,2.639
"36","X45",1,1,0.884
"37","X45",0,0,1.573
"38","X45",1,1,11.514
"39","X45",1,1,8.35
"40","X45",0,0,16.223
"41","X45",1,0,16.457
"42","X45",1,1,16.576
"43","X45",1,1,1.088
"44","X45",1,1,1.388
"45","X45",1,1,28.415
"46","X45",0,0,2.274
"47","X45",0,1,2.586
"48","X45",1,1,3.033
"49","X45",1,1,8.431
"50","X45",0,0,3.731
"51","X45",1,1,10.816
"53","X45",1,0,2.272
"54","X45",0,0,4.153
"55","X45",0,1,2.621
"56","X45",1,1,24.476
"57","X45",1,1,3.649
"58","X45",1,0,2.692
"59","X45",1,1,15.128
"60","X45",1,1,2.939
"61","X45",1,1,1.977
"62","X45",0,0,6.568
"63","X45",1,1,4.786
"65","X45",0,0,3.193
"66","X45",0,0,2.125
"67","X45",1,0,3.493
"68","X45",0,1,9.56
"69","X45",1,1,4.936
"70","X45",0,0,15.383
"71","X45",1,1,2.232
"72","X45",0,0,6.071
"73","X45",1,1,7.079
"74","X45",0,0,13.465
"75","X45",1,1,5.744
"76","X45",1,1,5.015
"78","X45",1,0,1.597
"79","X45",0,0,2.161
"80","X45",1,1,8.193
"81","X45",1,1,8.009
"82","X45",0,0,4.502
"83","X45",1,1,4.743
"84","X45",0,0,8.535
"85","X45",1,0,2.542
"86","X45",1,1,3.811
"88","X45",1,0,2.744
"89","X45",0,0,9.325
"90","X45",0,1,4.841
"91","X45",0,0,11.888
"92","X45",0,0,6.323
"93","X45",1,0,7.646
"94","X45",1,1,8.327
"95","X45",1,1,3.99
"96","X45",0,0,4.922
"97","X45",1,1,17.248
"98","X45",1,1,4.341
"99","X45",1,1,2.783
"100","X45",0,1,5.31
"2","X46",0,1,1.564
"3","X46",1,0,3.14
"4","X46",0,0,3.962
"6","X46",1,1,2.393
"7","X46",0,1,1.543
"8","X46",1,1,3.049
"9","X46",1,1,3.968
"11","X46",1,1,2.875
"12","X46",0,1,8.403
"13","X46",0,0,5.951
"14","X46",1,1,4.397
"15","X46",0,0,14.761
"16","X46",1,1,8.592
"17","X46",1,1,2.016
"18","X46",1,1,5.882
"19","X46",0,1,2.733
"20","X46",1,1,4.562
"21","X46",0,0,5.637
"22","X46",0,1,3.464
"23","X46",0,1,4.938
"24","X46",0,0,10.291
"25","X46",1,1,2.88
"26","X46",1,1,3.965
"27","X46",0,0,6.639
"28","X46",1,1,6.488
"29","X46",0,0,6.344
"32","X46",1,0,1.856
"33","X46",0,1,7.505
"34","X46",1,1,1.908
"37","X46",0,1,1.742
"38","X46",0,0,11.087
"39","X46",0,1,6.865
"40","X46",1,1,6.321
"41","X46",0,1,11.181
"42","X46",1,1,10.302
"43","X46",1,1,2.199
"44","X46",1,1,2.14
"45","X46",1,1,15.24
"46","X46",1,0,5.185
"47","X46",1,1,4.521
"48","X46",0,0,6.472
"49","X46",1,0,11.391
"50","X46",0,0,3.677
"51","X46",1,1,8.476
"53","X46",0,1,1.936
"54","X46",0,0,3.766
"55","X46",0,0,2.982
"56","X46",1,1,4.687
"58","X46",1,1,5.979
"59","X46",1,1,11.656
"60","X46",0,0,2.971
"61","X46",0,0,2.535
"62","X46",1,1,10.991
"63","X46",0,0,4.937
"64","X46",1,1,4.282
"65","X46",1,1,1.371
"66","X46",0,0,1.978
"67","X46",0,0,3.749
"68","X46",1,0,7.752
"69","X46",0,0,6.632
"70","X46",0,0,3.2
"71","X46",1,1,3.056
"72","X46",1,0,15.639
"73","X46",0,1,3.471
"74","X46",1,1,7.296
"75","X46",0,0,12.928
"76","X46",0,0,7.842
"78","X46",0,0,3.248
"79","X46",0,0,2.351
"81","X46",1,1,8.875
"82","X46",0,0,6.749
"83","X46",0,1,9.229
"84","X46",0,0,13.159
"85","X46",0,0,4.654
"86","X46",0,0,3.344
"88","X46",0,1,3.418
"89","X46",1,1,6.643
"90","X46",1,0,1.533
"91","X46",0,0,11.576
"92","X46",0,0,3.272
"93","X46",0,0,7.39
"94","X46",0,0,7.743
"95","X46",1,1,3.381
"96","X46",1,1,6.775
"97","X46",0,0,13.007
"98","X46",1,1,6.485
"99","X46",1,0,1.736
"100","X46",1,1,4.34
"2","X47",0,1,2.096
"3","X47",0,0,5.472
"4","X47",0,0,12.86
"6","X47",1,1,4.208
"7","X47",0,0,2.768
"8","X47",1,1,2.473
"9","X47",1,1,4.696
"11","X47",0,1,2.908
"12","X47",1,0,6.448
"13","X47",1,0,5.069
"14","X47",0,1,3.339
"15","X47",0,0,4.625
"16","X47",1,1,12.76
"17","X47",1,0,5.118
"18","X47",0,1,1.921
"19","X47",1,1,5.617
"20","X47",0,0,4.672
"21","X47",1,1,1.938
"22","X47",0,1,3.32
"23","X47",0,1,4.19
"24","X47",1,0,12.935
"25","X47",1,0,1.657
"26","X47",0,0,6.18
"27","X47",0,0,12.769
"28","X47",0,0,6.342
"29","X47",0,0,6.496
"30","X47",0,0,1.438
"31","X47",1,1,2.957
"32","X47",1,1,2.287
"33","X47",1,1,11.486
"34","X47",1,1,2.256
"37","X47",0,0,6.869
"38","X47",0,0,9.905
"39","X47",0,0,9.614
"40","X47",1,1,7.296
"41","X47",1,1,5.759
"42","X47",1,1,8.322
"43","X47",0,0,2.241
"44","X47",1,1,1.291
"45","X47",1,1,16.856
"46","X47",1,1,3.862
"47","X47",1,0,3.532
"48","X47",1,0,6.68
"49","X47",0,0,13.089
"50","X47",1,0,8.367
"51","X47",0,1,19.719
"53","X47",1,1,1.825
"54","X47",0,0,3.543
"55","X47",0,0,10.82
"56","X47",1,1,11.166
"57","X47",1,0,4.318
"59","X47",0,0,15.417
"60","X47",1,1,1.602
"61","X47",1,0,3.953
"62","X47",1,1,7.112
"63","X47",1,1,7.073
"64","X47",0,0,3.38
"65","X47",1,1,2.36
"66","X47",0,0,1.52
"67","X47",0,0,3.294
"68","X47",1,1,3.12
"69","X47",1,1,5.936
"70","X47",1,0,3.016
"71","X47",1,0,4.558
"72","X47",0,1,4.697
"73","X47",1,0,8.435
"74","X47",1,1,9.864
"75","X47",1,1,14.769
"76","X47",1,0,8.416
"78","X47",0,1,2.341
"80","X47",1,1,10.944
"81","X47",0,0,7.88
"82","X47",0,0,9.538
"83","X47",1,1,14.294
"84","X47",1,1,16.081
"86","X47",1,0,4.205
"88","X47",0,0,2.316
"89","X47",0,1,6.256
"90","X47",1,1,1.5
"91","X47",1,1,8.389
"92","X47",1,1,4.336
"93","X47",0,0,5.929
"94","X47",0,1,4.201
"95","X47",0,0,1.452
"96","X47",0,0,3.467
"97","X47",0,0,12.568
"98","X47",1,1,5.279
"99","X47",0,0,2.094
"100","X47",0,1,2.803
"2","X48",1,1,2.268
"3","X48",0,0,5.328
"4","X48",0,0,3.553
"6","X48",1,1,2.485
"7","X48",1,1,2.334
"8","X48",1,1,5.952
"9","X48",0,1,5.033
"11","X48",1,1,1.781
"12","X48",0,0,7.437
"13","X48",0,0,5.457
"14","X48",0,1,3.235
"15","X48",1,1,4.178
"16","X48",0,0,5.975
"17","X48",0,0,2.244
"18","X48",1,1,1.864
"19","X48",1,1,2.048
"20","X48",0,0,4.949
"21","X48",0,0,2.264
"22","X48",1,0,2.336
"23","X48",1,1,2.618
"24","X48",1,1,7.145
"25","X48",0,1,2.304
"26","X48",1,1,2.77
"27","X48",1,0,7.143
"28","X48",1,1,3.803
"29","X48",0,0,17.459
"30","X48",0,0,1.875
"31","X48",1,1,11.88
"32","X48",0,0,1.952
"33","X48",0,0,20.326
"34","X48",1,1,2.64
"37","X48",1,1,1.982
"38","X48",1,1,6.155
"39","X48",1,0,7.19
"40","X48",0,0,6.372
"41","X48",1,1,10.185
"42","X48",0,0,7.076
"43","X48",0,1,2.928
"44","X48",0,1,1.547
"45","X48",1,1,24.361
"46","X48",0,0,7.775
"47","X48",1,1,3.304
"48","X48",0,0,3.34
"49","X48",1,0,13.864
"50","X48",0,0,5.346
"51","X48",1,1,11.22
"53","X48",1,1,3.072
"54","X48",0,1,5.429
"55","X48",1,1,1.679
"56","X48",1,1,10.598
"57","X48",0,0,4.599
"58","X48",1,1,1.843
"59","X48",0,0,21.728
"60","X48",0,1,1.866
"61","X48",1,1,2.559
"62","X48",0,0,6.36
"63","X48",1,0,7.553
"64","X48",1,1,4.426
"65","X48",0,1,3.456
"66","X48",0,0,1.841
"67","X48",1,1,8.683
"68","X48",1,1,6.216
"69","X48",1,1,8.48
"70","X48",0,0,9.415
"71","X48",0,0,2.777
"72","X48",0,1,4.928
"73","X48",1,1,5.437
"74","X48",0,0,7.12
"75","X48",1,0,13.057
"76","X48",1,1,4.384
"78","X48",1,0,4.064
"79","X48",0,0,1.888
"80","X48",0,0,12.519
"81","X48",1,1,13.064
"82","X48",1,0,21.959
"83","X48",1,1,28.28
"84","X48",0,1,5.904
"86","X48",1,1,2.252
"88","X48",0,1,2.047
"89","X48",0,1,7.735
"90","X48",0,0,1.339
"91","X48",0,0,10.196
"92","X48",1,1,6.44
"93","X48",1,1,3.923
"94","X48",0,0,8.634
"95","X48",1,0,3.837
"96","X48",0,0,3.482
"97","X48",1,1,13.592
"98","X48",1,1,5.773
"99","X48",1,1,2.177
"100","X48",1,1,3.256
"2","X49",1,1,1.74
"3","X49",1,1,2.136
"4","X49",1,1,1.729
"6","X49",0,0,3.645
"7","X49",0,0,1.576
"8","X49",0,1,7.928
"9","X49",1,1,11.882
"11","X49",0,0,5.477
"12","X49",1,1,3.269
"14","X49",0,0,3.599
"15","X49",0,0,15.09
"16","X49",1,1,6.959
"17","X49",0,0,4.907
"18","X49",0,0,4.078
"19","X49",0,1,3.539
"20","X49",0,1,5.421
"21","X49",1,1,5.829
"22","X49",0,0,5.216
"23","X49",0,0,1.582
"24","X49",0,1,3.893
"25","X49",0,0,1.905
"26","X49",1,1,3.983
"27","X49",0,1,13.072
"28","X49",0,0,3.712
"29","X49",0,0,6.198
"30","X49",0,0,2.071
"31","X49",1,1,4.883
"32","X49",0,0,5.504
"33","X49",0,0,19.176
"34","X49",1,1,2.768
"37","X49",0,1,3.031
"38","X49",0,0,9.218
"39","X49",0,1,3.457
"40","X49",1,1,4.013
"41","X49",1,1,8.691
"42","X49",1,1,5.582
"43","X49",0,1,1.737
"44","X49",1,0,1.665
"45","X49",0,0,15.168
"46","X49",0,0,3.106
"47","X49",0,1,3.055
"48","X49",0,1,7.682
"49","X49",1,1,5.968
"50","X49",0,0,3.287
"51","X49",0,0,8.211
"53","X49",1,1,3
"54","X49",0,0,4.271
"55","X49",0,0,5.154
"56","X49",0,0,10.998
"57","X49",0,1,3.524
"58","X49",0,1,3.267
"59","X49",0,0,12.696
"60","X49",0,0,1.719
"61","X49",1,1,6.111
"62","X49",1,1,5.856
"63","X49",0,0,5.168
"64","X49",0,0,3.888
"65","X49",0,1,1.536
"67","X49",0,0,2.996
"68","X49",1,1,10.928
"69","X49",1,1,6.888
"70","X49",1,1,13.208
"71","X49",1,1,1.698
"72","X49",1,1,6.656
"73","X49",0,1,7.858
"74","X49",0,0,8.881
"75","X49",1,1,10.721
"76","X49",0,0,6.066
"78","X49",0,0,2.131
"79","X49",1,1,2.189
"80","X49",0,0,21.217
"81","X49",1,1,12.607
"82","X49",1,1,12.31
"83","X49",1,1,14.605
"84","X49",1,1,7.391
"85","X49",0,0,3.124
"86","X49",0,0,3.242
"89","X49",0,0,7.375
"90","X49",1,1,2.564
"92","X49",1,1,5.554
"93","X49",0,0,5.236
"94","X49",0,0,5.295
"95","X49",1,1,4.278
"96","X49",0,1,4.979
"97","X49",0,0,13.4
"98","X49",1,1,6.183
"99","X49",0,1,3.033
"100","X49",0,1,2.82
"2","X50",1,1,1.7
"3","X50",0,1,2.817
"4","X50",0,1,5.051
"6","X50",0,1,1.056
"7","X50",0,0,1.903
"8","X50",0,1,5.496
"9","X50",0,0,6.687
"11","X50",0,1,1.661
"12","X50",0,0,7.864
"13","X50",0,0,5.413
"14","X50",0,0,4.419
"15","X50",0,0,5.923
"16","X50",0,0,12.328
"17","X50",0,0,10.308
"18","X50",0,1,5.537
"19","X50",0,0,2.239
"20","X50",0,0,5.636
"21","X50",1,1,7.313
"22","X50",0,0,2.912
"23","X50",1,1,1.553
"24","X50",1,0,17.041
"25","X50",0,0,3.031
"26","X50",1,1,8.095
"27","X50",1,1,6.349
"28","X50",0,1,5.176
"29","X50",1,1,4.946
"30","X50",1,1,3.029
"31","X50",1,1,5.997
"32","X50",0,0,5.168
"33","X50",1,1,10.41
"34","X50",0,0,4.863
"36","X50",0,0,0.945
"37","X50",1,1,2.285
"38","X50",1,0,7.606
"39","X50",1,1,8.338
"40","X50",1,0,9.343
"41","X50",0,0,6.991
"42","X50",0,0,7.587
"43","X50",1,1,1.096
"44","X50",0,0,1.163
"45","X50",1,0,12.304
"46","X50",0,1,3.161
"47","X50",1,1,1.673
"48","X50",1,1,7.836
"49","X50",0,0,5.496
"50","X50",0,0,4.009
"51","X50",1,1,9.919
"53","X50",1,1,3.368
"54","X50",1,1,4.577
"55","X50",0,1,4.976
"56","X50",1,1,7.438
"57","X50",1,1,3.379
"58","X50",1,1,9.44
"59","X50",1,0,3.577
"60","X50",0,0,3.843
"61","X50",1,0,3.608
"62","X50",0,0,4.392
"63","X50",1,1,2.718
"64","X50",1,1,6.987
"65","X50",0,0,2.968
"66","X50",1,1,1.595
"67","X50",0,0,6.182
"68","X50",0,1,8
"69","X50",0,1,7.279
"70","X50",0,1,9.391
"71","X50",1,1,1.445
"72","X50",0,0,14.056
"73","X50",1,0,13.727
"74","X50",0,0,11.967
"75","X50",0,0,3.889
"76","X50",1,0,4.246
"78","X50",1,1,6.076
"79","X50",1,1,2.468
"80","X50",0,0,2.728
"81","X50",0,0,9.121
"82","X50",1,0,38.301
"83","X50",0,1,23.09
"84","X50",0,1,9.2
"85","X50",1,0,4.201
"86","X50",1,1,3.837
"88","X50",0,0,2.589
"89","X50",1,1,5.742
"90","X50",1,0,2.387
"91","X50",0,1,22.216
"92","X50",1,1,10.881
"93","X50",0,0,5.84
"94","X50",1,0,3.441
"95","X50",0,0,2.327
"96","X50",0,0,13.682
"97","X50",0,0,12.408
"98","X50",1,0,4.098
"99","X50",1,1,2.588
"100","X50",0,0,2.056
"2","X51",0,1,2.116
"3","X51",1,0,2.638
"4","X51",0,0,2.76
"6","X51",0,1,4.823
"7","X51",0,0,1.704
"8","X51",0,0,5.232
"9","X51",0,0,2.787
"11","X51",0,1,2.195
"12","X51",1,0,3.095
"13","X51",0,0,5.908
"14","X51",0,1,4.718
"15","X51",1,0,6.687
"16","X51",1,1,12.935
"17","X51",0,0,4.567
"18","X51",0,0,16.416
"19","X51",1,0,5.727
"20","X51",1,1,1.662
"21","X51",0,0,2.096
"22","X51",1,0,3.792
"24","X51",1,1,15.313
"25","X51",0,0,2.207
"26","X51",0,1,7.359
"27","X51",0,0,8.331
"28","X51",1,1,8.467
"29","X51",0,0,7.546
"30","X51",0,1,1.53
"31","X51",1,1,3.713
"32","X51",1,0,1.712
"33","X51",1,1,9.132
"34","X51",1,1,8.576
"36","X51",0,1,1.074
"37","X51",0,1,2.004
"38","X51",1,1,4.587
"39","X51",1,0,13.712
"40","X51",0,0,4.505
"41","X51",1,1,7.824
"42","X51",1,1,12.527
"43","X51",0,0,1.032
"44","X51",0,0,1.429
"45","X51",1,0,10.904
"46","X51",0,0,6.6
"47","X51",1,1,1.485
"48","X51",0,0,5.424
"49","X51",1,1,7.656
"50","X51",1,1,5.209
"51","X51",1,0,16.512
"53","X51",0,1,4.92
"54","X51",1,0,4.328
"55","X51",1,1,7.533
"56","X51",1,1,32.386
"58","X51",0,0,3.068
"59","X51",1,1,3.575
"60","X51",0,0,2.941
"61","X51",1,1,2.84
"62","X51",1,1,6.407
"63","X51",1,1,3.952
"64","X51",0,0,3.351
"65","X51",1,1,1.536
"66","X51",1,1,2.429
"67","X51",0,0,2.262
"68","X51",1,1,12.655
"69","X51",1,1,4.992
"70","X51",1,1,11.606
"71","X51",0,0,2.21
"72","X51",1,1,7.096
"73","X51",1,1,5.216
"74","X51",0,0,10.681
"75","X51",0,1,9.04
"76","X51",0,0,4.536
"78","X51",0,0,2.216
"79","X51",1,1,1.848
"80","X51",1,1,6.632
"81","X51",1,1,13.704
"82","X51",1,1,15.889
"83","X51",1,1,1.824
"84","X51",0,0,8.224
"85","X51",1,1,1.851
"86","X51",1,1,3.4
"89","X51",0,1,3.714
"90","X51",1,1,1.54
"92","X51",0,1,15.232
"93","X51",1,1,5.792
"94","X51",1,1,3.972
"95","X51",0,0,8.298
"96","X51",1,1,6.189
"97","X51",0,1,25.192
"98","X51",1,1,4.444
"99","X51",0,1,2.647
"100","X51",0,0,2.214
"2","X52",1,0,1.208
"3","X52",1,0,3.328
"4","X52",1,1,3.544
"6","X52",1,0,4.056
"7","X52",0,1,1.751
"8","X52",1,1,2.776
"9","X52",1,1,2.27
"11","X52",1,1,0.996
"12","X52",1,1,5.967
"14","X52",1,1,3.258
"15","X52",0,0,3.913
"16","X52",0,0,11.583
"17","X52",1,1,5.703
"18","X52",1,1,2.352
"19","X52",1,1,1.608
"20","X52",0,1,4.008
"21","X52",0,0,3.824
"22","X52",1,1,3.772
"23","X52",0,0,1.603
"24","X52",1,1,6.105
"25","X52",1,1,2.696
"26","X52",1,0,10.031
"27","X52",0,0,10.108
"28","X52",1,0,5.754
"29","X52",1,1,5.871
"30","X52",0,1,1.114
"31","X52",1,1,7.351
"32","X52",1,1,4.688
"33","X52",1,1,13.409
"34","X52",1,0,3.84
"36","X52",1,0,1.17
"37","X52",0,0,1.507
"38","X52",1,1,10.493
"39","X52",1,0,14.94
"41","X52",0,0,8.54
"42","X52",0,0,11.246
"43","X52",1,1,1.28
"44","X52",0,1,1.741
"45","X52",1,0,13.559
"46","X52",1,1,3.895
"47","X52",0,1,1.163
"48","X52",1,1,2.177
"49","X52",1,1,5.912
"50","X52",1,1,6.765
"51","X52",0,0,18.368
"53","X52",1,1,10.681
"54","X52",1,1,3.137
"55","X52",1,0,3.577
"56","X52",0,0,20.06
"57","X52",1,1,3.949
"58","X52",0,0,11.533
"59","X52",0,0,3.68
"60","X52",1,1,2.993
"61","X52",0,1,2.535
"62","X52",1,0,10.44
"63","X52",0,0,5.981
"64","X52",0,1,4.635
"65","X52",1,1,4.928
"66","X52",0,0,2.965
"67","X52",0,0,2.565
"68","X52",1,0,7.584
"69","X52",1,1,14.391
"70","X52",1,1,9.061
"71","X52",0,0,2.136
"72","X52",0,0,6.112
"73","X52",1,1,6.151
"74","X52",0,0,9.633
"75","X52",0,1,4.128
"76","X52",0,0,4.953
"78","X52",1,0,2.942
"79","X52",1,0,2.481
"81","X52",1,1,15.522
"82","X52",1,1,8.8
"83","X52",1,1,2.858
"84","X52",0,0,3.974
"86","X52",1,1,4.061
"89","X52",0,0,4.037
"90","X52",0,1,1.64
"91","X52",1,1,10.867
"92","X52",0,0,7.889
"93","X52",1,1,8.744
"95","X52",0,0,5.1
"96","X52",0,0,14.174
"97","X52",1,1,10.111
"98","X52",0,1,5.882
"99","X52",1,0,3.694
"100","X52",1,1,2.122
"3","X53",0,1,5.09
"4","X53",0,0,4.974
"6","X53",0,1,2.703
"7","X53",1,0,1.408
"8","X53",0,1,2.135
"9","X53",0,0,4.938
"11","X53",1,1,2.08
"12","X53",0,0,4.11
"13","X53",0,0,5.331
"14","X53",1,1,1.781
"15","X53",0,1,12.12
"16","X53",1,1,6.327
"17","X53",1,1,7.22
"18","X53",1,1,3.504
"19","X53",0,1,2.709
"20","X53",1,1,2.491
"21","X53",1,1,3.573
"22","X53",1,1,3.417
"23","X53",1,0,2.218
"24","X53",1,1,6.778
"25","X53",0,1,3.008
"26","X53",1,1,6.787
"27","X53",1,1,9.635
"28","X53",0,0,3.906
"29","X53",1,1,7.435
"30","X53",1,1,3.609
"31","X53",0,1,4.615
"32","X53",1,1,1.6
"33","X53",0,0,12.495
"34","X53",1,1,2.232
"36","X53",1,1,0.6
"37","X53",0,1,0.586
"38","X53",0,0,7.192
"39","X53",0,0,13.183
"40","X53",0,0,5.534
"41","X53",1,1,6.518
"42","X53",0,0,22.693
"43","X53",1,1,1.528
"44","X53",1,0,1.558
"45","X53",1,0,15.128
"46","X53",0,0,6.098
"47","X53",1,1,2.023
"48","X53",0,0,8.654
"49","X53",0,0,9.72
"50","X53",0,0,4.759
"51","X53",1,1,10.717
"53","X53",1,0,4.033
"54","X53",1,1,3.943
"55","X53",1,1,7.774
"56","X53",0,1,5.871
"58","X53",1,1,6.042
"59","X53",0,0,6.776
"60","X53",1,1,1.676
"61","X53",0,0,5.119
"62","X53",1,0,9.649
"63","X53",0,0,6.321
"64","X53",0,0,4.391
"65","X53",0,0,4.799
"66","X53",1,0,3.408
"67","X53",0,1,7.655
"68","X53",0,1,3.016
"69","X53",0,0,10.704
"70","X53",1,0,9.383
"71","X53",1,1,1.591
"72","X53",0,1,7.703
"73","X53",0,0,15.575
"74","X53",1,0,16.672
"75","X53",1,0,17.715
"76","X53",0,0,6.992
"78","X53",0,0,2.78
"79","X53",1,1,2.889
"80","X53",0,0,3.52
"81","X53",1,1,12.576
"82","X53",0,1,15.873
"83","X53",0,0,5.098
"84","X53",0,1,8.32
"85","X53",0,0,5.122
"86","X53",0,0,3.492
"89","X53",0,0,9.742
"90","X53",0,0,1.619
"91","X53",0,0,11.366
"92","X53",1,1,11.976
"93","X53",1,0,5.715
"94","X53",1,1,4.382
"95","X53",0,0,1.501
"96","X53",0,1,20.01
"97","X53",1,1,15.16
"98","X53",0,1,6.121
"99","X53",0,0,2.242
"100","X53",1,1,4.467
"3","X54",0,1,5.799
"4","X54",1,1,6.192
"6","X54",0,0,2.816
"7","X54",1,1,1.495
"8","X54",0,1,3.327
"9","X54",0,0,7.139
"11","X54",0,1,3.273
"12","X54",0,0,5.392
