"subj_idx","trial","whichWorld","response","rt"
"1","X1",0,0,2.313
"2","X1",1,0,5.089
"3","X1",0,0,5.775
"4","X1",0,0,5.28
"5","X1",1,1,6.864
"6","X1",1,1,5.603
"7","X1",1,1,4.339
"8","X1",0,1,9.385
"10","X1",0,0,9.903
"11","X1",1,1,4.072
"12","X1",1,1,5.34
"13","X1",0,0,6.99
"15","X1",1,1,3.252
"16","X1",1,1,7.449
"17","X1",0,0,8.956
"18","X1",0,1,4.582
"19","X1",1,1,13.826
"20","X1",0,0,8.534
"21","X1",0,0,11.142
"22","X1",1,1,4.984
"23","X1",1,1,13.271
"24","X1",1,1,10.008
"25","X1",1,1,14.658
"26","X1",0,0,2.207
"27","X1",1,0,7.287
"28","X1",0,1,10.8
"30","X1",1,0,2.64
"31","X1",1,1,18.848
"32","X1",1,1,5.84
"33","X1",1,1,3.588
"34","X1",0,0,4.275
"35","X1",1,0,12.608
"36","X1",0,0,16.743
"37","X1",0,0,5.926
"38","X1",1,0,8.028
"39","X1",1,0,4.531
"40","X1",0,1,2.936
"41","X1",0,0,7.886
"42","X1",0,1,2.448
"43","X1",1,1,9.376
"44","X1",1,0,2.526
"45","X1",1,0,6.292
"46","X1",0,0,3.56
"47","X1",1,1,4.604
"48","X1",0,0,10.183
"1","X2",1,1,3.408
"2","X2",1,1,2.945
"3","X2",0,0,6.115
"4","X2",1,1,7.359
"5","X2",1,0,12.259
"6","X2",0,1,2.299
"7","X2",1,1,3.679
"8","X2",0,0,3.963
"9","X2",0,0,6.544
"10","X2",1,1,14.432
"11","X2",0,0,5.132
"12","X2",0,0,3.976
"13","X2",0,1,4.194
"15","X2",1,1,3.952
"16","X2",0,0,5.186
"17","X2",1,1,6.041
"18","X2",1,0,7.61
"19","X2",1,1,7.866
"20","X2",1,1,6.472
"21","X2",1,0,14.524
"22","X2",1,0,3.816
"23","X2",0,0,14.713
"24","X2",1,0,3.968
"25","X2",0,0,9.109
"26","X2",0,0,2.367
"27","X2",0,0,4.169
"28","X2",1,1,7.317
"29","X2",1,0,0.736
"30","X2",0,0,2.723
"31","X2",1,1,24.421
"32","X2",0,1,5.215
"33","X2",1,1,5.798
"35","X2",0,0,5.192
"36","X2",1,1,22.063
"37","X2",0,0,6.817
"38","X2",0,1,7.93
"39","X2",0,0,6.504
"40","X2",0,1,2.856
"41","X2",0,1,14.264
"42","X2",0,0,1.712
"43","X2",1,0,10.342
"44","X2",0,1,3.512
"45","X2",1,0,7.978
"46","X2",1,1,5.105
"47","X2",0,0,2.967
"48","X2",1,0,3.208
"49","X2",0,0,5.908
"1","X3",0,0,2.705
"2","X3",1,0,10.266
"3","X3",1,1,5.486
"4","X3",0,1,6.087
"5","X3",1,1,7.679
"6","X3",0,1,2.353
"7","X3",0,0,7.868
"8","X3",0,0,4.906
"9","X3",0,0,3.504
"10","X3",1,1,5.92
"11","X3",0,1,6.25
"12","X3",1,1,4.583
"13","X3",1,0,3.732
"15","X3",0,0,2.907
"16","X3",0,0,8.849
"17","X3",1,0,9.523
"18","X3",1,1,3.168
"19","X3",0,0,7.414
"20","X3",0,1,12.895
"22","X3",0,0,5.607
"23","X3",0,1,7.352
"24","X3",1,1,8.616
"25","X3",0,0,11.426
"26","X3",0,0,1.527
"27","X3",0,0,5.288
"28","X3",0,1,4.566
"29","X3",0,1,0.789
"30","X3",1,1,2.024
"31","X3",0,0,15.679
"32","X3",0,0,5.583
"33","X3",1,0,4.402
"34","X3",0,1,5.238
"35","X3",1,1,6.937
"36","X3",0,1,18.776
"37","X3",0,1,5.246
"38","X3",1,0,2.837
"39","X3",0,0,5.126
"40","X3",1,1,0.767
"41","X3",0,0,6.513
"42","X3",1,1,4.042
"43","X3",0,0,3.193
"44","X3",1,0,2.438
"45","X3",1,1,7.582
"46","X3",1,1,4.657
"48","X3",1,1,8.8
"1","X4",0,0,3.035
"2","X4",1,0,3.516
"3","X4",0,1,2.57
"4","X4",0,0,3.344
"5","X4",1,0,11.145
"6","X4",0,0,1.224
"7","X4",0,0,13.006
"8","X4",0,0,10.519
"9","X4",1,1,4.728
"10","X4",0,0,15.576
"11","X4",0,1,3.355
"12","X4",0,0,2.528
"13","X4",1,1,4.467
"15","X4",1,1,10.453
"16","X4",0,0,10.002
"17","X4",0,0,4.149
"18","X4",0,0,1.946
"19","X4",0,0,5.568
"20","X4",1,0,8.798
"21","X4",0,0,15.769
"22","X4",0,0,3.856
"23","X4",1,1,9.374
"24","X4",1,1,12.679
"25","X4",1,1,10.695
"26","X4",0,1,1.534
"27","X4",0,1,4.551
"28","X4",0,0,6.358
"29","X4",0,0,0.688
"30","X4",1,1,1.825
"31","X4",1,0,21.659
"32","X4",1,1,5.201
"33","X4",0,0,3.52
"35","X4",0,0,5.607
"36","X4",1,1,15.776
"37","X4",1,1,9.971
"38","X4",1,0,3.227
"39","X4",1,1,6.803
"41","X4",1,1,7.73
"42","X4",1,1,2.379
"43","X4",1,0,4.73
"45","X4",1,0,5.572
"46","X4",0,0,2.376
"47","X4",1,1,6.218
"48","X4",0,0,16.417
"49","X4",1,1,2.886
"1","X5",0,0,1.932
"2","X5",0,0,5.315
"3","X5",1,1,1.66
"4","X5",0,0,4.647
"5","X5",1,1,9.439
"6","X5",0,0,1.601
"7","X5",1,1,6.446
"8","X5",1,1,4.311
"10","X5",0,0,12.952
"11","X5",1,1,3.265
"12","X5",0,0,3
"13","X5",1,0,5.084
"15","X5",1,1,4.367
"16","X5",0,0,7.728
"17","X5",0,1,11.865
"18","X5",1,0,2.224
"19","X5",0,0,4.094
"20","X5",0,0,21.52
"21","X5",0,0,16.351
"22","X5",0,1,8.192
"23","X5",1,1,9.587
"25","X5",1,1,15.459
"26","X5",0,0,4.186
"27","X5",0,0,4.345
"28","X5",1,1,6.149
"29","X5",0,0,0.641
"30","X5",0,0,1.879
"31","X5",0,0,12.08
"32","X5",1,1,5.472
"33","X5",1,0,6.895
"34","X5",0,1,1.277
"35","X5",1,0,5.595
"36","X5",1,1,16.295
"37","X5",1,1,9.704
"38","X5",0,0,3.21
"39","X5",0,1,4.773
"40","X5",1,1,2.118
"41","X5",1,1,11.554
"42","X5",1,1,2.354
"43","X5",0,0,5.087
"44","X5",0,0,1.607
"45","X5",0,0,6.248
"46","X5",1,0,3.944
"47","X5",0,0,4.089
"48","X5",1,1,8.768
"49","X5",1,1,17.935
"1","X6",1,0,5.537
"2","X6",0,0,7.986
"3","X6",0,0,2.545
"4","X6",0,1,4.278
"5","X6",0,0,9.349
"6","X6",0,1,1.168
"7","X6",1,1,4.055
"8","X6",1,1,3.548
"9","X6",0,1,12.733
"10","X6",0,0,9.992
"11","X6",0,1,6.009
"12","X6",1,0,21.608
"13","X6",1,0,2.856
"15","X6",1,0,5.107
"16","X6",0,0,8.077
"17","X6",0,0,17.422
"18","X6",0,0,2.784
"19","X6",0,0,2.94
"20","X6",0,0,10.608
"22","X6",1,1,2.919
"23","X6",0,1,9.57
"24","X6",0,0,3.88
"25","X6",1,1,18.762
"26","X6",1,1,4.16
"27","X6",0,0,5.872
"28","X6",0,1,13.139
"29","X6",0,0,0.56
"31","X6",1,0,11.849
"32","X6",1,0,3.926
"33","X6",0,0,4.452
"34","X6",0,0,9.37
"35","X6",1,1,4.675
"36","X6",0,0,22.959
"37","X6",0,0,12.938
"38","X6",0,1,6.85
"39","X6",1,1,7.106
"40","X6",1,1,1.635
"41","X6",0,1,7.777
"42","X6",0,0,1.734
"43","X6",1,1,7.223
"44","X6",0,1,2.175
"45","X6",0,1,5.048
"46","X6",0,1,5.344
"47","X6",0,0,4.661
"48","X6",1,1,3.84
"49","X6",1,1,8.419
"1","X7",0,0,2.135
"2","X7",0,1,4.18
"3","X7",0,1,3.418
"4","X7",0,0,7.567
"5","X7",0,0,10.254
"6","X7",0,1,1.365
"7","X7",0,1,4.216
"8","X7",0,0,9.035
"9","X7",0,0,4.928
"10","X7",1,0,6.942
"11","X7",0,0,3.496
"12","X7",0,0,2.237
"13","X7",1,1,2.759
"15","X7",0,0,3.453
"16","X7",0,0,10.782
"17","X7",0,0,8.534
"18","X7",1,1,3.376
"19","X7",1,1,2.491
"20","X7",0,0,11.169
"22","X7",1,1,2.176
"23","X7",1,1,16.612
"24","X7",1,1,6.264
"25","X7",1,1,8.193
"26","X7",1,1,2.677
"27","X7",1,1,4.376
"28","X7",1,1,4.118
"29","X7",1,1,0.641
"30","X7",0,0,4.52
"31","X7",1,1,9.156
"32","X7",0,0,4.072
"33","X7",0,1,4.914
"35","X7",0,0,5.63
"36","X7",1,1,14.392
"37","X7",0,0,2.14
"38","X7",0,0,6.676
"39","X7",1,1,4.316
"40","X7",1,1,0.697
"41","X7",1,1,7.824
"42","X7",0,1,1.119
"43","X7",1,1,4.811
"44","X7",0,1,1.437
"45","X7",1,1,3.61
"46","X7",1,0,5.64
"47","X7",0,0,12.956
"48","X7",1,1,5.976
"1","X8",1,1,2.1
"2","X8",0,1,9.062
"3","X8",1,1,3.445
"4","X8",1,1,8.055
"5","X8",1,1,4.876
"6","X8",0,0,1.154
"7","X8",1,1,7.64
"8","X8",1,1,4.217
"9","X8",1,1,7.685
"10","X8",0,1,6.816
"11","X8",0,1,2.08
"12","X8",1,1,7.176
"13","X8",0,1,2.745
"15","X8",0,0,6.282
"16","X8",0,0,8.849
"17","X8",0,0,4.546
"18","X8",0,0,2.694
"19","X8",1,1,4.269
"20","X8",0,0,7.333
"21","X8",0,1,16.642
"22","X8",0,0,6.24
"23","X8",1,1,12.213
"24","X8",0,1,12.24
"25","X8",1,1,25.54
"26","X8",1,1,6.257
"27","X8",1,1,4.289
"28","X8",0,0,5.985
"29","X8",1,1,0.659
"30","X8",1,0,1.705
"31","X8",1,1,9.448
"32","X8",0,0,5.607
"33","X8",1,1,5.084
"34","X8",0,1,3.499
"35","X8",0,1,8.247
"36","X8",1,1,8.095
"37","X8",1,0,3.382
"38","X8",0,0,2.845
"39","X8",0,0,5.572
"40","X8",0,1,0.584
"41","X8",1,1,14.994
"42","X8",0,1,2.866
"43","X8",1,1,4.511
"44","X8",0,1,2.4
"45","X8",1,0,3.478
"46","X8",0,0,2.296
"47","X8",1,1,5.047
"48","X8",1,0,8.768
"1","X9",0,1,5.061
"2","X9",0,0,4.881
"3","X9",1,1,3.401
"4","X9",0,1,7.863
"5","X9",0,0,8.182
"6","X9",1,0,1.115
"7","X9",0,0,4.619
"8","X9",0,1,6.188
"9","X9",0,0,6.574
"10","X9",0,0,11.912
"11","X9",0,0,5.672
"12","X9",0,0,10.08
"13","X9",0,0,4.476
"15","X9",0,0,2.236
"16","X9",1,1,6.959
"17","X9",1,0,14.028
"18","X9",0,0,3.131
"19","X9",1,1,2.6
"20","X9",0,0,10.475
"21","X9",0,0,9.533
"22","X9",0,0,5.145
"23","X9",1,1,18.585
"24","X9",0,0,2.593
"25","X9",1,1,9.608
"26","X9",1,1,3.4
"27","X9",0,1,8.064
"28","X9",0,0,15.977
"29","X9",1,1,0.896
"30","X9",0,1,5.144
"31","X9",1,1,9.089
"32","X9",0,1,7.304
"33","X9",0,0,4.087
"34","X9",1,1,5.607
"35","X9",0,1,4.204
"36","X9",0,0,13.128
"37","X9",1,1,5.547
"38","X9",1,1,2.449
"39","X9",0,0,3.794
"40","X9",1,1,0.657
"41","X9",0,0,8.446
"42","X9",1,1,2.545
"43","X9",0,0,7.069
"44","X9",0,0,3.366
"45","X9",1,1,5.31
"46","X9",0,1,4.264
"47","X9",0,0,5.896
"48","X9",1,1,4.56
"49","X9",0,0,15.918
"1","X10",1,0,4.824
"2","X10",1,0,6.763
"3","X10",0,1,4.644
"4","X10",1,1,3.007
"5","X10",1,1,6.64
"6","X10",1,1,1.25
"7","X10",1,1,4.002
"8","X10",0,1,5.47
"9","X10",1,1,5.599
"11","X10",1,0,3.893
"12","X10",1,1,9.177
"13","X10",0,0,6.274
"16","X10",1,1,9
"17","X10",1,1,7.348
"18","X10",0,0,6.292
"19","X10",1,1,3.588
"20","X10",0,0,14.952
"21","X10",1,1,10.022
"22","X10",1,1,4.656
"23","X10",1,1,8.141
"24","X10",1,1,3.016
"25","X10",0,0,15.335
"26","X10",0,1,4.954
"27","X10",0,0,7.121
"28","X10",0,1,5.961
"29","X10",0,1,1.264
"30","X10",0,0,2.167
"31","X10",1,1,19.953
"32","X10",1,1,3.879
"33","X10",1,1,4.492
"34","X10",0,0,3.972
"35","X10",1,0,5.46
"36","X10",0,1,5.642
"37","X10",1,0,7.919
"38","X10",0,0,5.723
"39","X10",0,0,3.264
"40","X10",1,1,0.567
"41","X10",0,0,6.523
"42","X10",0,1,1.333
"43","X10",0,0,2.877
"44","X10",0,0,2.728
"45","X10",1,0,5.609
"46","X10",0,0,2.218
"47","X10",0,0,12.02
"48","X10",0,1,2.736
"49","X10",0,0,4.165
"1","X11",0,1,3.413
"2","X11",0,0,5.868
"3","X11",0,0,3.922
"4","X11",0,0,2.783
"5","X11",0,1,5.976
"6","X11",1,1,1.087
"7","X11",0,0,8.853
"8","X11",0,1,3.217
"9","X11",1,1,6.63
"10","X11",1,1,6.848
"11","X11",0,1,5.288
"12","X11",1,0,6.848
"13","X11",0,1,6.569
"15","X11",1,1,3.911
"16","X11",1,0,5.964
"17","X11",1,1,4.232
"18","X11",1,1,4.153
"19","X11",1,1,3.736
"20","X11",1,1,6.561
"21","X11",1,1,17.613
"22","X11",1,1,2.065
"23","X11",1,1,5.61
"24","X11",0,1,2.607
"25","X11",1,1,15.112
"26","X11",0,0,4.23
"27","X11",1,1,4.712
"28","X11",0,0,17.692
"29","X11",1,0,1.866
"30","X11",0,1,1.78
"31","X11",1,1,14.161
"32","X11",1,0,6.48
"33","X11",1,1,3.653
"34","X11",0,1,1.898
"35","X11",1,0,7.798
"36","X11",0,1,13.375
"37","X11",1,1,8.129
"38","X11",1,1,1.985
"39","X11",1,1,3.404
"40","X11",1,1,0.689
"41","X11",1,0,15.552
"42","X11",1,0,0.905
"43","X11",1,1,2.216
"44","X11",0,1,1.964
"45","X11",1,1,6.701
"46","X11",0,0,4.552
"47","X11",0,0,9.465
"48","X11",1,0,9.951
"49","X11",1,1,3.977
"1","X12",1,1,2.638
"2","X12",0,0,5.557
"3","X12",0,0,4.035
"4","X12",1,1,6.472
"5","X12",1,1,5.267
"6","X12",0,0,1.075
"7","X12",0,0,5.012
"8","X12",1,1,4.069
"9","X12",0,0,3.427
"10","X12",0,0,8.68
"11","X12",1,0,2.12
"12","X12",1,1,5.881
"13","X12",0,0,4.028
"15","X12",0,1,6.944
"16","X12",1,0,11.648
"17","X12",0,1,11.533
"18","X12",1,1,2.744
"19","X12",1,0,3.732
"20","X12",0,0,13.336
"21","X12",1,1,13.203
"22","X12",1,1,2.801
"23","X12",0,0,6.488
"24","X12",1,1,7.24
"25","X12",0,0,23.275
"26","X12",0,0,1.671
"27","X12",1,1,5.839
"28","X12",1,0,6.184
"29","X12",0,0,1.824
"30","X12",1,1,2.628
"31","X12",1,0,20.89
"32","X12",0,0,3.904
"33","X12",1,1,4.13
"34","X12",0,1,1.17
"35","X12",0,1,4.751
"36","X12",0,0,11.128
"37","X12",0,0,1.885
"38","X12",1,1,4.232
"39","X12",1,0,4.302
"40","X12",0,0,4.83
"41","X12",1,0,8.23
"42","X12",0,1,0.594
"43","X12",1,0,7.436
"44","X12",0,1,2.098
"45","X12",0,0,6.692
"46","X12",0,1,6.512
"47","X12",1,1,11.232
"48","X12",0,1,5.969
"1","X13",0,0,2.289
"2","X13",0,1,8.036
"3","X13",0,0,3.703
"4","X13",0,0,6.671
"5","X13",1,0,9.345
"6","X13",1,1,1.027
"7","X13",0,0,8.611
"8","X13",1,1,6.554
"9","X13",0,0,2.773
"10","X13",1,1,12.464
"11","X13",0,1,3.496
"12","X13",0,0,3.807
"13","X13",0,0,4.314
"15","X13",1,1,4.068
"16","X13",1,0,13.778
"17","X13",1,0,16.458
"18","X13",0,0,2.888
"19","X13",0,0,3.383
"20","X13",1,1,9.072
"21","X13",1,1,23.185
"22","X13",1,0,3.447
"23","X13",1,0,24.34
"24","X13",1,1,8.28
"25","X13",0,0,15.484
"26","X13",1,1,1.747
"27","X13",0,1,6.256
"28","X13",0,1,9.149
"29","X13",0,0,1.314
"30","X13",1,1,3.483
"31","X13",1,0,16.537
"32","X13",0,0,2.887
"33","X13",1,1,3.874
"34","X13",0,0,4.069
"35","X13",1,1,2.841
"36","X13",1,1,6.632
"37","X13",1,1,4.43
"38","X13",0,1,5.445
"39","X13",1,1,4.115
"40","X13",0,1,3.914
"41","X13",1,0,12.384
"42","X13",1,1,0.569
"43","X13",1,0,3.766
"44","X13",1,1,3.212
"45","X13",1,1,4.568
"46","X13",1,1,7.072
"47","X13",1,0,10.163
"48","X13",1,1,17.808
"1","X14",0,0,2.185
"2","X14",0,0,5.244
"3","X14",0,0,3.126
"4","X14",0,0,3.135
"5","X14",1,1,4.315
"6","X14",1,1,0.767
"7","X14",0,1,5.995
"8","X14",0,0,5.04
"9","X14",1,0,3.2
"10","X14",1,1,8.224
"11","X14",1,1,1.993
"12","X14",1,0,12.744
"13","X14",1,1,2.705
"15","X14",0,0,8.28
"16","X14",0,0,5.668
"17","X14",0,1,7.629
"18","X14",1,1,5.645
"19","X14",0,1,2.401
"20","X14",1,1,7.241
"21","X14",1,1,21.341
"22","X14",0,0,3.039
"23","X14",0,0,3.468
"24","X14",1,0,12.448
"25","X14",0,0,22.997
"26","X14",0,1,0.717
"27","X14",1,0,3.096
"28","X14",1,1,4.802
"29","X14",0,0,1.104
"30","X14",1,1,5.352
"31","X14",1,0,11.233
"32","X14",1,1,3.727
"33","X14",0,0,3.583
"34","X14",1,1,2.161
"35","X14",1,0,2.995
"36","X14",1,1,7.584
"37","X14",0,0,11.399
"38","X14",1,1,4.993
"39","X14",1,1,2.326
"40","X14",0,1,0.863
"41","X14",1,1,7.353
"42","X14",0,0,1.335
"43","X14",0,0,4.984
"44","X14",1,0,2.54
"45","X14",0,0,3.847
"46","X14",0,0,3.656
"47","X14",1,1,10.431
"48","X14",1,1,3.918
"1","X15",1,1,1.978
"2","X15",1,1,10.064
"3","X15",0,1,2.009
"4","X15",0,1,2.839
"5","X15",1,1,5.591
"6","X15",1,0,0.846
"7","X15",0,0,12.707
"8","X15",0,0,4.265
"9","X15",1,1,13.835
"10","X15",1,1,6.696
"11","X15",0,0,6.201
"12","X15",0,0,3.833
"13","X15",1,1,7.79
"15","X15",0,0,7.935
"16","X15",1,1,10.923
"17","X15",1,1,4.045
"18","X15",0,1,2.658
"19","X15",0,0,2.152
"20","X15",1,1,9.655
"21","X15",1,0,18.847
"22","X15",0,0,1.935
"23","X15",0,0,5.53
"24","X15",0,0,4.058
"25","X15",1,1,14.712
"26","X15",0,1,0.555
"27","X15",1,1,4.696
"28","X15",1,1,5.995
"30","X15",0,1,2.656
"31","X15",0,0,12.105
"32","X15",1,1,3.728
"33","X15",1,1,5.01
"34","X15",0,1,2.196
"35","X15",0,0,3.944
"36","X15",0,1,11.063
"37","X15",0,0,6.153
"38","X15",0,0,10.064
"39","X15",0,0,3.299
"40","X15",0,1,0.597
"41","X15",0,1,8.1
"42","X15",0,0,1.117
"43","X15",1,1,4.594
"44","X15",0,0,1.931
"45","X15",1,1,4.524
"46","X15",0,1,2.624
"47","X15",0,1,9.105
"48","X15",1,1,6.6
"49","X15",1,1,10.087
"1","X16",0,0,2.77
"2","X16",0,1,3.878
"3","X16",0,1,3.026
"4","X16",1,0,4.143
"5","X16",0,0,7.302
"6","X16",0,1,0.904
"7","X16",1,1,6.707
"8","X16",1,1,3.543
"9","X16",0,0,4.396
"10","X16",0,0,15.08
"11","X16",1,1,5.736
"12","X16",1,1,3.553
"13","X16",0,0,5.66
"15","X16",0,0,10.956
"16","X16",0,1,6.376
"17","X16",1,0,10.792
"18","X16",0,0,2.139
"19","X16",0,1,3.026
"20","X16",1,1,7.566
"21","X16",1,0,19.077
"22","X16",0,1,2.536
"23","X16",1,1,3.102
"24","X16",1,1,5.041
"25","X16",1,1,14.063
"26","X16",1,1,0.739
"27","X16",0,1,5.095
"28","X16",0,0,6.726
"29","X16",0,1,1.12
"30","X16",1,0,3.431
"31","X16",0,0,13.489
"32","X16",0,0,5.04
"33","X16",1,1,3.573
"34","X16",1,1,1.817
"35","X16",1,1,3.048
"36","X16",1,1,10.744
"37","X16",0,0,8.565
"38","X16",0,0,7.169
"39","X16",0,1,4.92
"40","X16",0,1,0.585
"41","X16",0,0,5.724
"42","X16",0,1,0.904
"43","X16",1,0,6.111
"44","X16",0,1,3.512
"45","X16",1,0,3.269
"46","X16",0,0,3.689
"47","X16",1,1,4.556
"48","X16",1,1,9.92
"1","X17",0,1,2.108
"2","X17",0,1,2.524
"3","X17",0,0,2.125
"4","X17",1,1,4.006
"5","X17",1,1,4.942
"6","X17",0,0,1.383
"7","X17",1,1,6.538
"8","X17",1,1,4.851
"9","X17",0,0,5.136
"10","X17",0,1,5.616
"11","X17",0,1,2.376
"12","X17",0,1,4.651
"13","X17",1,1,3.59
"15","X17",0,0,8.066
"16","X17",0,1,6.568
"17","X17",1,0,7.937
"18","X17",1,0,6.439
"19","X17",0,0,3.211
"20","X17",0,0,11.338
"21","X17",0,0,4.699
"22","X17",1,1,3.841
"23","X17",0,0,6.195
"24","X17",1,0,8.377
"25","X17",1,1,14.532
"27","X17",1,0,4.919
"28","X17",0,0,7.233
"29","X17",0,0,1.537
"30","X17",1,1,2.528
"31","X17",1,1,14.53
"32","X17",1,0,5.831
"33","X17",0,0,3.829
"34","X17",0,1,2.739
"35","X17",1,1,4.743
"36","X17",0,0,14.087
"37","X17",1,0,4.152
"38","X17",0,1,5.585
"39","X17",0,0,4.999
"40","X17",0,0,3.746
"41","X17",1,0,6.76
"42","X17",1,1,0.589
"43","X17",1,1,2.156
"44","X17",1,0,2.378
"45","X17",1,1,4.462
"46","X17",0,1,4.032
"47","X17",0,0,11.78
"48","X17",0,0,3.456
"49","X17",0,0,11.216
"1","X18",1,1,4.359
"2","X18",0,0,2.896
"3","X18",0,1,2.646
"4","X18",0,0,4.534
"5","X18",0,0,6.421
"6","X18",0,1,0.965
"7","X18",0,0,5.038
"8","X18",1,1,2.158
"9","X18",1,1,4.58
"10","X18",1,1,7.712
"11","X18",1,0,4.792
"12","X18",1,0,2.587
"13","X18",0,0,3.758
"15","X18",1,0,10.19
"16","X18",1,1,5.764
"17","X18",1,0,7.127
"18","X18",0,1,2.832
"19","X18",1,1,2.777
"20","X18",0,0,6.494
"21","X18",0,0,8.313
"22","X18",1,0,4.824
"23","X18",0,1,7.094
"24","X18",1,0,11.815
"25","X18",1,1,17.657
"26","X18",0,0,2.486
"27","X18",1,1,3.36
"28","X18",1,1,5.555
"29","X18",1,1,1.344
"31","X18",0,1,10.632
"32","X18",1,1,7.079
"33","X18",0,0,3.927
"34","X18",0,1,1.984
"35","X18",1,0,4.701
"36","X18",1,1,10.472
"37","X18",0,0,5.797
"38","X18",1,1,3.733
"39","X18",1,1,4.861
"40","X18",0,0,2.805
"41","X18",1,1,9.913
"43","X18",1,1,6.069
"44","X18",1,1,2.568
"45","X18",1,1,2.579
"46","X18",0,0,6.752
"47","X18",1,1,3.144
"48","X18",0,0,4.488
"1","X19",0,1,2.426
"2","X19",0,0,2.563
"3","X19",0,0,3.191
"4","X19",1,1,2.336
"5","X19",0,0,7.089
"6","X19",0,1,0.716
"7","X19",1,1,5.792
"8","X19",1,1,4.748
"9","X19",1,1,5.877
"10","X19",0,0,6.983
"11","X19",0,1,4.385
"12","X19",1,1,7.688
"13","X19",0,1,4.995
"15","X19",1,0,9.71
"16","X19",0,0,3.647
"17","X19",0,0,8.373
"18","X19",1,0,3.808
"19","X19",0,1,2.661
"20","X19",0,0,10.56
"21","X19",1,1,17.619
"22","X19",0,0,2.927
"23","X19",0,0,12.08
"24","X19",0,0,11.744
"25","X19",1,1,14.059
"26","X19",1,1,0.611
"27","X19",0,0,3.048
"28","X19",1,0,3.793
"29","X19",1,1,2.831
"31","X19",1,1,11.001
"32","X19",1,0,5.152
"33","X19",0,0,4.494
"35","X19",1,1,3.73
"36","X19",0,0,5.471
"37","X19",1,1,4.777
"38","X19",1,1,2.609
"39","X19",1,1,3.672
"40","X19",0,1,1.536
"41","X19",1,1,11.57
"43","X19",1,1,2.908
"44","X19",0,1,2.459
"45","X19",1,1,3.202
"46","X19",0,0,8.96
"47","X19",0,0,4.843
"48","X19",1,0,2.672
"49","X19",0,1,2.495
"1","X20",1,1,3.419
"2","X20",1,1,3.191
"3","X20",1,1,1.689
"4","X20",0,0,3.455
"5","X20",0,1,7.832
"6","X20",0,0,0.742
"7","X20",0,0,14.06
"8","X20",1,1,5.126
"10","X20",0,0,10.4
"11","X20",1,1,3.664
"12","X20",1,1,8.648
"13","X20",0,0,5.197
"15","X20",1,1,3.311
"16","X20",0,0,6.828
"17","X20",0,1,10.104
"18","X20",0,0,2.732
"19","X20",1,0,6.421
"20","X20",1,0,6.877
"21","X20",0,0,16.933
"22","X20",0,0,2
"23","X20",1,1,6.065
"24","X20",0,1,12.592
"25","X20",0,1,18.742
"26","X20",1,1,0.561
"27","X20",1,1,4.904
"28","X20",1,1,9.912
"30","X20",0,0,1.8
"32","X20",1,0,5.223
"33","X20",1,1,4.262
"34","X20",0,0,2.388
"35","X20",0,0,6.248
"36","X20",0,0,3.904
"37","X20",1,1,5.629
"38","X20",1,1,3.828
"39","X20",1,0,2.608
"40","X20",1,1,1.159
"41","X20",1,1,7.594
"42","X20",1,1,1.095
"43","X20",1,0,7.288
"44","X20",1,0,1.64
"45","X20",1,1,4.892
"46","X20",1,1,3
"47","X20",0,0,9.718
"48","X20",0,1,7.848
"1","X21",0,0,2.537
"2","X21",0,1,3.908
"3","X21",1,1,2.642
"4","X21",1,1,2.959
"5","X21",1,0,11.024
"6","X21",1,1,1.073
"7","X21",1,1,3.22
"8","X21",0,0,7.098
"11","X21",1,1,2.922
"12","X21",0,1,9.752
"13","X21",1,1,3.517
"15","X21",0,0,5.218
"16","X21",0,0,5.16
"17","X21",0,0,12.59
"18","X21",0,1,2.505
"19","X21",0,1,4.988
"20","X21",1,1,7.766
"21","X21",0,0,7.46
"22","X21",0,0,3.832
"23","X21",1,0,9.357
"24","X21",0,0,8.616
"25","X21",0,0,24.752
"26","X21",0,1,3.288
"27","X21",1,1,5.031
"28","X21",0,0,13.913
"29","X21",1,1,1.296
"30","X21",0,0,3.804
"31","X21",1,1,5.936
"32","X21",0,0,4.215
"33","X21",1,1,4.005
"34","X21",0,1,2.149
"36","X21",1,1,5.264
"37","X21",1,0,2.481
"38","X21",0,0,1.79
"39","X21",1,0,3.478
"40","X21",1,1,1.999
"41","X21",1,0,10.918
"42","X21",0,1,0.695
"44","X21",0,1,1.794
"45","X21",0,0,6.077
"46","X21",1,1,3.704
"47","X21",0,0,9.805
"48","X21",1,1,4.328
"49","X21",1,1,3.925
"1","X22",1,1,2.861
"2","X22",0,1,4.122
"3","X22",0,1,2.29
"4","X22",1,1,4.944
"5","X22",0,0,4.987
"6","X22",0,1,0.946
"7","X22",0,0,3.367
"8","X22",0,0,5.648
"10","X22",1,1,9.512
"11","X22",0,0,1.298
"12","X22",1,1,8.025
"13","X22",1,0,4.532
"15","X22",0,1,7.719
"16","X22",0,0,9.127
"17","X22",0,0,5.067
"18","X22",0,0,2.64
"19","X22",1,0,5.616
"20","X22",0,0,14.495
"21","X22",0,0,2.628
"22","X22",1,0,2.487
"23","X22",1,1,8.323
"24","X22",0,0,7.52
"25","X22",1,1,16.475
"26","X22",0,1,0.791
"27","X22",0,0,4.777
"28","X22",1,1,5.313
"29","X22",0,1,1.362
"30","X22",0,0,3.536
"31","X22",0,0,14.242
"32","X22",1,0,6.823
"33","X22",1,1,5.489
"34","X22",0,0,2.454
"36","X22",1,1,9.131
"37","X22",1,1,7.122
"38","X22",0,0,1.482
"39","X22",1,1,2.556
"40","X22",1,1,2.28
"41","X22",0,1,7.589
"42","X22",1,1,0.568
"43","X22",1,1,3.65
"44","X22",1,1,1.982
"45","X22",0,1,4.498
"46","X22",1,1,3.288
"47","X22",0,0,3.604
"48","X22",0,0,7.863
"49","X22",0,0,8.594
"1","X23",1,0,7.093
"2","X23",0,1,8.189
"3","X23",0,0,5.404
"4","X23",1,1,7.775
"5","X23",0,0,4.497
"6","X23",1,0,0.98
"7","X23",1,1,3.467
"8","X23",1,1,3.293
"9","X23",0,0,3.254
"11","X23",0,1,5.755
"12","X23",1,1,8.2
"13","X23",1,0,6.672
"15","X23",1,1,1.891
"16","X23",1,1,6.596
"17","X23",0,1,8.518
"18","X23",0,0,1.589
"19","X23",0,1,5.102
"20","X23",0,0,13.367
"21","X23",1,0,4.361
"22","X23",0,0,3.487
"23","X23",1,1,6.885
"24","X23",1,1,10.128
"25","X23",0,0,20.805
"26","X23",0,1,0.87
"27","X23",0,1,5.287
"28","X23",1,1,2.987
"29","X23",1,1,1.616
"30","X23",0,0,3.333
"31","X23",1,1,6.856
"32","X23",0,0,5.047
"33","X23",0,0,7.123
"34","X23",1,1,3.667
"36","X23",0,0,4.417
"37","X23",0,0,2.104
"38","X23",1,1,5.14
"40","X23",0,0,2.536
"41","X23",1,1,5.745
"43","X23",0,0,8.412
"44","X23",0,1,1.818
"46","X23",0,0,5.873
"47","X23",0,1,7.307
"48","X23",1,1,7.544
"1","X24",0,0,2.806
"2","X24",0,1,8.028
"3","X24",1,1,3.783
"4","X24",1,1,2.55
"5","X24",0,1,9.837
"6","X24",0,1,0.888
"7","X24",1,1,6.945
"8","X24",0,1,8.593
"10","X24",1,1,4.695
"11","X24",1,1,2.384
"12","X24",0,0,4.248
"13","X24",0,0,3.4
"15","X24",1,1,6.851
"16","X24",0,0,7.235
"17","X24",0,0,9.319
"18","X24",0,1,2.501
"19","X24",1,0,3.373
"20","X24",1,1,5.481
"21","X24",1,1,6.665
"22","X24",1,1,2.424
"23","X24",0,0,2.315
"24","X24",1,1,3.289
"25","X24",0,0,7.208
"26","X24",0,0,0.687
"27","X24",0,0,4.784
"28","X24",0,1,5.362
"29","X24",0,1,1.552
"30","X24",1,1,1.68
"31","X24",0,0,11.561
"32","X24",1,0,6.662
"33","X24",1,1,6.163
"34","X24",0,0,2.071
"36","X24",0,1,5.448
"37","X24",1,1,5.425
"38","X24",1,1,1.533
"39","X24",1,1,2.702
"40","X24",1,1,1.25
"41","X24",1,1,9.631
"43","X24",0,0,3.456
"44","X24",0,1,1.822
"45","X24",0,0,5.105
"46","X24",0,1,2.584
"47","X24",0,1,11.685
"48","X24",0,0,7.264
"49","X24",0,0,12.492
"1","X25",0,0,2.122
"2","X25",0,1,3.566
"3","X25",1,1,2.786
"4","X25",0,0,6.351
"5","X25",1,1,4.211
"6","X25",0,1,0.688
"7","X25",0,0,8.703
"8","X25",1,1,3.012
"9","X25",1,1,9.398
"10","X25",1,1,13.641
"11","X25",1,1,2.136
"12","X25",0,0,3.112
"13","X25",0,0,3.999
"16","X25",1,0,13.804
"17","X25",1,1,9.043
"18","X25",0,0,3.568
"19","X25",0,1,2.783
"20","X25",1,1,6.798
"21","X25",1,0,7.608
"22","X25",1,0,2.159
"23","X25",0,0,9.897
"24","X25",0,1,7.288
"25","X25",0,0,8.684
"26","X25",0,1,0.964
"27","X25",0,0,2.945
"28","X25",0,0,6.769
"29","X25",1,1,1.296
"30","X25",0,1,3.475
"31","X25",1,1,12.041
"32","X25",1,1,5.448
"33","X25",1,1,3.948
"34","X25",1,1,2.698
"35","X25",0,1,10.061
"36","X25",0,0,5.928
"37","X25",1,1,7.246
"38","X25",0,0,3.275
"39","X25",0,0,3.126
"40","X25",0,0,3.161
"41","X25",0,0,14.026
"42","X25",0,1,0.552
"43","X25",0,0,4.307
"44","X25",0,1,1.827
"45","X25",0,0,4.628
"46","X25",1,1,5.895
"47","X25",1,0,2.574
"48","X25",1,0,20.2
"49","X25",1,1,5.517
"1","X26",0,1,1.853
"2","X26",0,0,3.612
"3","X26",0,1,2.054
"4","X26",1,1,3.375
"5","X26",1,1,3.917
"6","X26",0,0,1.097
"7","X26",0,0,8.258
"8","X26",1,1,5.037
"10","X26",0,0,8.369
"11","X26",1,1,4
"12","X26",0,0,2.952
"13","X26",0,0,4.233
"15","X26",0,0,2.965
"16","X26",0,1,3.545
"17","X26",0,0,16.882
"18","X26",0,0,2.098
"19","X26",1,1,5.007
"20","X26",0,0,5.896
"21","X26",0,0,10.458
"22","X26",1,1,2.505
"23","X26",1,1,4.997
"24","X26",1,0,6.352
"25","X26",0,0,19.019
"26","X26",0,0,1.017
"27","X26",1,0,5.744
"28","X26",0,0,5.821
"29","X26",1,0,1.376
"30","X26",0,1,3.839
"31","X26",0,0,7.84
"32","X26",1,0,10.423
"33","X26",1,1,5.013
"34","X26",1,1,1.714
"35","X26",1,1,2.445
"36","X26",0,1,8.959
"37","X26",1,0,1.612
"38","X26",0,1,1.487
"39","X26",0,0,2.96
"40","X26",1,1,4.039
"41","X26",1,1,11.095
"43","X26",0,0,5.271
"44","X26",0,1,2.474
"45","X26",1,1,3.548
"46","X26",0,0,2.152
"47","X26",1,1,5.7
"48","X26",1,1,2.76
"49","X26",1,1,11.904
"1","X27",1,1,2.112
"2","X27",1,1,3.558
"3","X27",1,1,2.273
"4","X27",1,1,4.967
"5","X27",0,1,4.442
"6","X27",0,0,0.981
"7","X27",0,1,15.616
"8","X27",1,1,3.356
"10","X27",1,1,4.511
"11","X27",1,1,1.58
"12","X27",0,0,4.254
"13","X27",1,1,5.581
"15","X27",1,1,5.219
"16","X27",0,0,2.392
"17","X27",1,1,6.392
"18","X27",0,0,2.892
"19","X27",0,1,5.975
"20","X27",0,0,16.215
"21","X27",1,1,8.762
"22","X27",0,0,2.983
"23","X27",0,0,12.58
"24","X27",1,1,2.456
"25","X27",0,0,15.085
"26","X27",1,1,0.666
"27","X27",0,0,4.112
"28","X27",0,0,2.8
"29","X27",1,1,1.296
"30","X27",0,0,2.136
"31","X27",1,1,7.129
"32","X27",0,0,5.672
"33","X27",0,1,5.134
"35","X27",0,0,7.913
"36","X27",0,0,4.904
"37","X27",0,0,1.617
"38","X27",0,1,4.683
"39","X27",0,0,2.822
"40","X27",1,1,1.587
"41","X27",0,0,6.543
"42","X27",0,0,0.609
"43","X27",1,1,6.132
"44","X27",0,1,2.256
"45","X27",0,0,6.319
"46","X27",0,0,2.561
"47","X27",1,1,4.891
"48","X27",0,0,4.088
"49","X27",0,1,4.253
"1","X28",1,1,4.097
"2","X28",0,0,3.572
"3","X28",1,1,2.563
"4","X28",1,1,3.816
"5","X28",1,1,7.764
"6","X28",0,0,0.784
"7","X28",0,1,2.715
"8","X28",1,1,3.866
"10","X28",1,1,4.311
"11","X28",1,0,1.44
"12","X28",1,1,6.328
"13","X28",1,1,3.307
"15","X28",0,0,2.042
"16","X28",1,1,3.903
"17","X28",1,1,6.227
"18","X28",1,1,2.817
"19","X28",1,1,2.463
"20","X28",1,1,5.552
"21","X28",0,0,7.747
"22","X28",1,1,1.576
"23","X28",0,1,3.926
"24","X28",0,0,9.744
"25","X28",1,1,10.645
"26","X28",1,1,0.954
"27","X28",0,0,5.465
"28","X28",1,0,7.149
"29","X28",0,0,1.632
"30","X28",1,1,3.73
"31","X28",1,1,13.041
"32","X28",1,1,5.007
"33","X28",1,1,4.967
"35","X28",1,1,2.943
"36","X28",0,0,11.376
"37","X28",0,0,3.498
"38","X28",0,0,1.653
"39","X28",1,0,5.196
"40","X28",1,1,2.04
"41","X28",0,0,6.367
"42","X28",0,0,0.877
"43","X28",0,1,5.458
"45","X28",0,1,6.136
"46","X28",1,1,9.152
"47","X28",0,0,5.751
"48","X28",1,0,4.424
"49","X28",0,1,7.132
"1","X29",0,0,2.916
"2","X29",0,1,7.558
"3","X29",1,1,2.678
"4","X29",1,1,5.086
"5","X29",1,1,9.038
"6","X29",0,0,0.727
"7","X29",0,1,4.619
"8","X29",1,1,4.806
"10","X29",1,1,6.152
"11","X29",0,0,3.984
"12","X29",1,1,5.329
"13","X29",0,0,2.314
"15","X29",1,1,5.029
"16","X29",0,0,4.072
"17","X29",1,1,15.113
"18","X29",1,0,2.336
"19","X29",1,1,2.667
"20","X29",1,1,11.351
"21","X29",1,0,8.22
"22","X29",0,0,2.007
"23","X29",0,0,9.297
"24","X29",0,0,4.089
"25","X29",0,0,27.756
"27","X29",0,1,6.143
"28","X29",1,1,8.537
"29","X29",0,0,1.104
"30","X29",0,0,1.968
"31","X29",0,0,15.471
"32","X29",1,1,4.208
"33","X29",0,1,7.73
"35","X29",1,1,4.112
"36","X29",1,0,4.624
"37","X29",1,1,1.993
"38","X29",0,0,2.376
"39","X29",0,1,5.468
"40","X29",0,1,0.758
"41","X29",1,1,5.435
"42","X29",1,1,0.896
"43","X29",1,0,6.365
"44","X29",1,1,1.52
"45","X29",0,1,6.309
"46","X29",1,0,8.184
"47","X29",1,1,11.815
"48","X29",0,1,11.152
"49","X29",0,0,9.882
"1","X30",0,0,2.897
"2","X30",0,0,3.942
"3","X30",0,1,3.726
"4","X30",1,0,4.071
"5","X30",0,0,6.686
"6","X30",0,1,0.755
"7","X30",0,0,12.767
"8","X30",1,1,4.69
"10","X30",1,1,5.623
"11","X30",1,1,4.774
"12","X30",0,1,4.57
"13","X30",1,1,2.528
"15","X30",1,1,6.919
"16","X30",1,1,4.081
"17","X30",0,0,9.229
"19","X30",1,1,3.146
"20","X30",0,1,9.488
"21","X30",0,1,5.772
"22","X30",0,0,2.016
"23","X30",1,1,26.659
"24","X30",1,1,7.031
"25","X30",1,1,13.429
"27","X30",1,1,4.561
"28","X30",1,1,3.94
"29","X30",0,1,1.6
"30","X30",1,1,1.936
"31","X30",0,0,23.201
"32","X30",0,0,4.263
"33","X30",0,0,4.487
"35","X30",0,0,2.766
"36","X30",1,1,7.855
"37","X30",0,1,4.235
"38","X30",1,1,4.411
"39","X30",1,1,2.831
"40","X30",1,1,0.582
"41","X30",0,0,12.225
"42","X30",1,1,0.708
"43","X30",0,1,1.185
"44","X30",0,1,2.014
"45","X30",1,0,3.331
"46","X30",0,0,4.184
"47","X30",0,0,5.155
"48","X30",1,0,3.232
"1","X31",0,0,2.6
"2","X31",0,0,6.972
"3","X31",1,1,3.38
"4","X31",0,0,5.255
"5","X31",0,0,8.058
"6","X31",1,1,0.959
"7","X31",1,1,6.317
"8","X31",1,1,7.433
"9","X31",0,0,11.589
"10","X31",0,1,8.905
"11","X31",1,1,3.536
"12","X31",1,1,2.527
"13","X31",1,1,4.723
"15","X31",0,1,6.977
"16","X31",1,1,5.024
"17","X31",1,1,7.392
"18","X31",0,1,3.015
"19","X31",1,1,4.187
"20","X31",0,0,8.08
"21","X31",0,0,6.791
"22","X31",0,0,2.729
"23","X31",1,1,2.048
"24","X31",0,1,3.145
"25","X31",0,0,16.659
"26","X31",1,1,1.17
"27","X31",0,0,5.448
"28","X31",0,1,14.722
"29","X31",1,1,1.68
"30","X31",0,0,3.695
"31","X31",0,0,9.697
"32","X31",1,0,2.864
"33","X31",1,0,7.796
"34","X31",1,0,2.611
"35","X31",1,1,5.875
"36","X31",0,0,3.872
"37","X31",0,1,3.284
"38","X31",0,1,4.177
"39","X31",0,1,4.495
"41","X31",1,1,4.436
"42","X31",0,0,0.567
"43","X31",0,0,1.089
"44","X31",0,1,2.424
"45","X31",1,1,3.399
"46","X31",1,1,2.632
"47","X31",0,0,10.939
"48","X31",1,1,3.448
"49","X31",1,1,2.77
"1","X32",0,0,2.796
"2","X32",1,1,10.378
"3","X32",1,1,1.655
"4","X32",0,0,3.391
"5","X32",1,1,5.559
"6","X32",1,0,0.815
"8","X32",1,1,10.333
"10","X32",0,0,3.376
"12","X32",1,1,9.542
"13","X32",1,0,5.315
"15","X32",0,1,2.718
"16","X32",1,1,4.87
"17","X32",0,0,6.394
"18","X32",0,0,3.23
"19","X32",0,0,3.099
"20","X32",0,1,17.247
"21","X32",1,0,5.925
"22","X32",1,0,1.688
"23","X32",1,1,4.307
"24","X32",1,1,4.544
"25","X32",1,1,9.624
"27","X32",0,0,5.959
"28","X32",0,1,9.501
"29","X32",0,0,1.072
"30","X32",0,1,2.824
"31","X32",1,1,12.111
"32","X32",0,0,4.583
"33","X32",1,1,4.908
"35","X32",1,1,3.596
"36","X32",0,0,5.905
"37","X32",0,1,5.279
"38","X32",0,0,1.801
"39","X32",0,1,5.073
"41","X32",1,1,7.529
"42","X32",1,1,1.299
"43","X32",0,0,1.054
"44","X32",1,0,2.064
"45","X32",0,0,3.536
"46","X32",0,0,5.793
"47","X32",0,1,6.064
"48","X32",1,1,3.856
"49","X32",1,0,4.626
"1","X33",0,0,1.601
"2","X33",0,0,3.527
"3","X33",0,1,1.403
"4","X33",0,0,3.56
"5","X33",1,1,4.624
"6","X33",0,1,0.758
"7","X33",1,1,4.212
"8","X33",0,1,8.374
"10","X33",1,1,10.625
"11","X33",0,1,2.8
"12","X33",0,0,4.08
"13","X33",1,0,5.961
"15","X33",1,1,2.801
"16","X33",1,1,3.221
"17","X33",0,0,7.896
"18","X33",0,0,2.098
"19","X33",0,1,2.125
"20","X33",0,0,10.583
"21","X33",1,1,7.248
"22","X33",1,1,1.24
"23","X33",0,0,2.804
"24","X33",0,0,5.312
"25","X33",0,0,24.959
"27","X33",0,0,5.865
"28","X33",0,0,3.183
"29","X33",0,0,1.088
"30","X33",1,1,2.642
"31","X33",0,1,15.049
"32","X33",1,1,4.056
"33","X33",0,0,6.843
"34","X33",1,1,3.149
"35","X33",1,1,3.427
"36","X33",0,0,6.882
"37","X33",1,0,1.184
"38","X33",0,1,4.366
"39","X33",0,1,3.92
"41","X33",0,0,6.21
"42","X33",1,1,0.898
"43","X33",0,1,1.037
"44","X33",0,1,1.925
"45","X33",0,0,5.556
"46","X33",0,0,6.736
"47","X33",0,0,2.292
"48","X33",0,0,11.984
"49","X33",1,1,2.672
"1","X34",1,1,3.421
"2","X34",0,0,3.402
"3","X34",1,1,1.186
"4","X34",1,0,6.04
"5","X34",1,0,6.707
"6","X34",1,0,0.878
"7","X34",0,1,6.984
"8","X34",0,1,1.742
"10","X34",1,1,4.568
"11","X34",1,1,7.872
"12","X34",1,1,2.952
"13","X34",1,1,6.105
"15","X34",1,1,6.208
"16","X34",1,1,3.16
"17","X34",0,0,7.522
"18","X34",1,1,4.033
"19","X34",0,0,3.384
"20","X34",0,0,12.336
"21","X34",1,1,6.963
"22","X34",1,1,1.52
"23","X34",1,1,7.618
"24","X34",1,1,3.128
"25","X34",0,0,11.27
"26","X34",0,1,0.666
"27","X34",0,1,7.472
"28","X34",1,1,22.491
"29","X34",0,1,1.6
"30","X34",1,1,2.048
"31","X34",1,0,18.979
"32","X34",0,1,3.487
"33","X34",1,1,3.312
"34","X34",1,1,2.887
"35","X34",0,0,4.844
"36","X34",1,1,5.864
"37","X34",0,0,1.33
"38","X34",1,1,8.532
"39","X34",1,0,3.965
"40","X34",1,0,1.024
"41","X34",0,0,11.287
"42","X34",0,0,0.818
"43","X34",0,0,1.167
"44","X34",1,1,2.352
"45","X34",1,1,3.424
"46","X34",1,1,3.728
"47","X34",0,0,10.041
"48","X34",0,0,2.744
"49","X34",1,1,4.065
"1","X35",1,0,3.817
"2","X35",0,0,5.062
"3","X35",0,1,1.986
"4","X35",1,1,6.624
"5","X35",0,0,8.326
"6","X35",0,0,0.927
"7","X35",1,1,5.421
"8","X35",1,1,3.111
"10","X35",1,1,6.168
"11","X35",1,1,2.536
"12","X35",0,0,8.568
"13","X35",0,1,3.535
"15","X35",1,1,4.966
"16","X35",1,1,4.563
"17","X35",1,0,14.145
"18","X35",1,1,2.76
"19","X35",1,1,2.975
"20","X35",1,0,13.112
"21","X35",0,0,8.819
"22","X35",0,0,1.656
"23","X35",0,0,10.792
"24","X35",1,1,9.456
"25","X35",0,0,16.079
"26","X35",0,1,0.874
"27","X35",1,1,6.336
"28","X35",1,1,3.958
"29","X35",1,1,1.057
"30","X35",1,1,4.544
"31","X35",1,0,13.881
"32","X35",1,0,4.704
"33","X35",1,1,7.186
"34","X35",1,1,2.1
"35","X35",1,0,3.133
"36","X35",0,0,10.36
"37","X35",0,0,4.356
"38","X35",1,1,4.99
"39","X35",0,0,6.095
"40","X35",1,1,1.53
"41","X35",0,0,4.357
"42","X35",1,1,0.852
"43","X35",0,0,1.108
"44","X35",1,0,2.056
"45","X35",1,1,5.144
"46","X35",1,1,2.88
"47","X35",0,0,2.946
"48","X35",1,1,9.911
"49","X35",0,0,14.715
"1","X36",1,1,2.142
"2","X36",1,1,4.075
"3","X36",1,1,1.799
"4","X36",1,1,2.655
"5","X36",1,0,9.838
"6","X36",1,1,0.755
"7","X36",0,1,4.884
"8","X36",1,1,7.233
"10","X36",0,0,3.696
"11","X36",1,1,2.361
"12","X36",0,1,4.496
"13","X36",0,1,6.656
"15","X36",1,1,3.84
"16","X36",1,1,2.351
"17","X36",0,0,7.214
"18","X36",0,0,5.086
"19","X36",1,1,4.416
"21","X36",1,1,7.413
"22","X36",1,0,3.199
"23","X36",1,1,4.216
"24","X36",1,1,2.544
"25","X36",1,1,29.207
"27","X36",0,1,4.183
"28","X36",0,0,2.525
"29","X36",1,1,1.6
"30","X36",1,0,6.912
"31","X36",1,0,13.793
"32","X36",0,0,5.055
"33","X36",0,0,3.747
"34","X36",1,1,2.904
"35","X36",1,1,5.262
"36","X36",1,1,10.043
"37","X36",1,0,1.552
"38","X36",1,1,4.181
"39","X36",0,1,3.385
"40","X36",0,1,1.162
"41","X36",1,1,11.783
"42","X36",0,0,0.878
"43","X36",1,1,1.247
"45","X36",0,0,4.945
"46","X36",0,0,10.218
"47","X36",1,1,9.423
"48","X36",1,1,10.08
"49","X36",0,0,2.598
"1","X37",0,1,3.256
"2","X37",1,1,4.039
"3","X37",0,1,1.193
"4","X37",1,1,4.624
"5","X37",0,0,7.63
"6","X37",0,0,0.806
"7","X37",1,1,4.683
"8","X37",1,0,4.801
"10","X37",1,0,7.32
"11","X37",0,0,1.329
"12","X37",0,0,3.291
"13","X37",1,1,5.565
"15","X37",1,0,8.234
"16","X37",0,0,4.021
"17","X37",1,1,13.2
"18","X37",0,1,2.696
"19","X37",1,0,1.852
"20","X37",1,1,3.926
"21","X37",1,0,5.713
"22","X37",1,0,2.928
"23","X37",0,0,7.08
"24","X37",1,1,5.808
"25","X37",1,1,8.767
"26","X37",1,0,1.289
"27","X37",0,1,4.735
"28","X37",0,1,12.927
"29","X37",1,1,1.056
"30","X37",1,1,1.998
"31","X37",1,0,12.386
"32","X37",0,0,5.768
"33","X37",1,1,7.076
"34","X37",1,0,1.641
"35","X37",1,1,2.851
"36","X37",1,1,5.976
"37","X37",1,0,2.128
"38","X37",1,0,2.901
"39","X37",0,0,3.331
"41","X37",0,0,7.408
"42","X37",0,1,0.61
"43","X37",0,0,1.402
"45","X37",1,0,3.047
"46","X37",1,0,5.408
"47","X37",0,0,5.049
"48","X37",0,0,3.105
"49","X37",0,0,5.902
"1","X38",0,1,2.02
"2","X38",1,1,10.746
"3","X38",0,0,2.537
"4","X38",1,0,2.527
"5","X38",0,1,4.721
"6","X38",1,0,0.738
"7","X38",1,1,2.958
"8","X38",1,1,4.973
"10","X38",0,0,5.64
"12","X38",1,0,4.154
"13","X38",1,0,2.286
"15","X38",0,0,2.443
"16","X38",1,1,3.424
"17","X38",1,1,8.778
"18","X38",0,0,2.736
"19","X38",0,0,3.02
"20","X38",1,1,7.968
"21","X38",1,1,5.141
"22","X38",0,0,3.511
"23","X38",0,0,6.493
"24","X38",0,0,5.28
"25","X38",1,1,10.746
"26","X38",0,0,0.913
"27","X38",1,1,5.257
"28","X38",0,0,7.965
"29","X38",1,1,1.072
"30","X38",1,1,3.425
"31","X38",0,0,10.563
"32","X38",0,1,3.895
"33","X38",1,1,4.426
"34","X38",1,1,1.788
"35","X38",0,0,4.675
"36","X38",0,1,9.808
"37","X38",0,1,6.176
"38","X38",0,1,3.866
"39","X38",1,0,4.493
"41","X38",0,0,6.363
"42","X38",1,1,0.857
"43","X38",0,0,1.937
"44","X38",0,1,2.383
"45","X38",0,0,3.642
"46","X38",1,1,3.976
"47","X38",1,0,2.319
"48","X38",0,0,3.048
"49","X38",0,1,3.657
"1","X39",0,0,3.105
"2","X39",1,1,5.064
"3","X39",0,1,2.196
"4","X39",1,1,3.04
"5","X39",0,1,4.129
"6","X39",0,1,0.696
"7","X39",1,1,3.526
"8","X39",1,1,7.855
"10","X39",1,1,6.809
"11","X39",0,1,2.424
"12","X39",1,0,7.704
"13","X39",1,0,7.917
"15","X39",0,0,2.66
"16","X39",0,0,4.592
"17","X39",0,0,7.91
"18","X39",0,0,3.226
"19","X39",1,1,2.626
"20","X39",0,0,4.503
"21","X39",1,1,6.6
"22","X39",0,0,7.001
"23","X39",1,1,1.038
"24","X39",1,1,4.16
"25","X39",0,0,7.322
"26","X39",0,1,1.022
"27","X39",0,0,3.727
"28","X39",0,0,5.372
"29","X39",0,0,1.057
"31","X39",1,1,7.24
"32","X39",1,0,4.255
"33","X39",0,1,5.568
"34","X39",0,0,3.832
"35","X39",0,0,3.396
"36","X39",1,1,6.232
"37","X39",0,0,3.235
"38","X39",0,0,3.671
"39","X39",0,1,4.619
"41","X39",0,0,7.879
"42","X39",1,1,0.845
"43","X39",0,0,1.197
"44","X39",0,0,3.393
"45","X39",0,1,2.491
"46","X39",1,0,3.449
"47","X39",1,1,2.498
"48","X39",0,0,3.432
"49","X39",0,0,4.359
"1","X40",1,0,1.799
"2","X40",1,1,4.163
"3","X40",0,0,3.98
"4","X40",0,0,3.167
"5","X40",0,0,8.217
"6","X40",1,1,1.484
"7","X40",1,1,8.105
"8","X40",1,0,2.648
"10","X40",1,1,4.6
"11","X40",0,0,2.477
"12","X40",1,0,13.96
"13","X40",0,1,6.797
"15","X40",1,1,8.468
"16","X40",0,0,5.719
"17","X40",0,0,8.607
"18","X40",0,0,2.384
"19","X40",0,1,1.796
"20","X40",1,1,6.573
"21","X40",0,0,6.375
"22","X40",0,0,2.768
"23","X40",1,1,0.701
"24","X40",1,1,3.809
"25","X40",1,1,14.341
"27","X40",0,0,5.663
"28","X40",0,1,3.869
"29","X40",1,1,1.024
"30","X40",0,0,1.912
"31","X40",1,1,8.025
"32","X40",1,1,4.087
"33","X40",1,1,6.127
"34","X40",1,0,2.737
"35","X40",0,0,3.508
"36","X40",0,0,4.657
"37","X40",1,0,1.416
"38","X40",1,1,4.652
"39","X40",0,1,4.107
"40","X40",0,0,1.795
"41","X40",0,0,6.602
"42","X40",1,0,0.965
"43","X40",0,0,1.892
"44","X40",0,1,2.182
"46","X40",0,0,2.423
"47","X40",1,1,5.845
"48","X40",1,1,6.015
"49","X40",1,1,5.381
"1","X41",0,1,3.945
"2","X41",0,1,3.016
"3","X41",1,0,2.264
"4","X41",1,0,2.343
"5","X41",0,1,8.048
"6","X41",0,1,0.652
"7","X41",1,1,8.265
"8","X41",0,0,3.696
"10","X41",1,0,4.447
"11","X41",1,1,1.911
"12","X41",0,0,3.593
"13","X41",1,1,3.294
"15","X41",0,1,2.239
"16","X41",1,1,6.848
"17","X41",0,0,8.45
"18","X41",0,0,2.898
"19","X41",0,0,2.433
"20","X41",1,1,6.481
"21","X41",1,0,8.748
"22","X41",0,1,1.617
"23","X41",1,1,0.6
"24","X41",0,0,7.76
"25","X41",0,0,9.276
"27","X41",0,0,4.808
"29","X41",1,1,1.728
"30","X41",1,1,4.32
"31","X41",0,0,14.104
"32","X41",1,1,4.487
"33","X41",0,1,4.891
"34","X41",0,1,2.313
"35","X41",0,0,5.368
"36","X41",0,0,6.126
"37","X41",0,0,2.287
"38","X41",1,1,2.345
"39","X41",1,1,3.517
"40","X41",1,1,1.072
"41","X41",1,1,5.559
"42","X41",1,1,0.822
"43","X41",1,1,2.193
"44","X41",0,1,2.036
"45","X41",1,1,5.558
"46","X41",0,0,4.184
"47","X41",0,1,9.786
"48","X41",0,0,5.504
"49","X41",0,0,3.824
"1","X42",1,1,2.373
"2","X42",0,0,2.826
"3","X42",0,0,2.715
"4","X42",1,1,3.103
"5","X42",0,0,10.46
"6","X42",1,1,0.606
"7","X42",1,1,2.998
"8","X42",1,1,2.181
"10","X42",0,0,9.192
"11","X42",0,1,1.191
"12","X42",1,1,2.631
"13","X42",1,1,4.429
"15","X42",1,0,1.924
"16","X42",1,0,2.754
"17","X42",0,0,6.779
"18","X42",1,0,3.971
"19","X42",1,0,4.205
"20","X42",0,0,8.704
"21","X42",0,0,5.438
"22","X42",1,0,3.825
"24","X42",0,0,8.528
"25","X42",0,0,11.397
"26","X42",0,1,0.791
"27","X42",0,0,5.271
"28","X42",0,1,7.744
"29","X42",1,0,1.696
"30","X42",0,1,2.298
"31","X42",1,1,16.434
"32","X42",0,1,4.775
"33","X42",0,0,3.676
"35","X42",0,1,4.743
"36","X42",1,1,6.888
"37","X42",1,1,2.691
"38","X42",1,1,3.001
"39","X42",1,0,3.383
"40","X42",1,1,0.588
"41","X42",1,1,15.989
"42","X42",1,1,0.707
"43","X42",0,0,4.835
"44","X42",1,0,2.449
"45","X42",0,0,5.691
"46","X42",1,1,2.919
"47","X42",1,1,7.976
"48","X42",0,1,4.248
"49","X42",1,1,1.983
"1","X43",0,0,1.993
"2","X43",0,0,2.818
"3","X43",1,1,1.278
"4","X43",1,1,2.593
"5","X43",1,1,7.21
"6","X43",1,1,1.135
"7","X43",1,1,7.976
"8","X43",1,1,3.171
"9","X43",0,0,1.827
"10","X43",0,0,12.008
"11","X43",1,1,2.846
"12","X43",0,0,5.264
"13","X43",1,0,3.558
"15","X43",1,1,1.744
"16","X43",0,1,5.521
"17","X43",0,0,11.234
"18","X43",0,0,3.534
"19","X43",0,1,2.257
"20","X43",1,1,5.555
"21","X43",0,0,12.394
"22","X43",0,0,4.088
"24","X43",1,1,3.624
"25","X43",0,0,17.194
"26","X43",1,1,0.578
"27","X43",1,1,4.985
"28","X43",0,0,8.351
"29","X43",1,1,1.68
"30","X43",0,1,2.672
"31","X43",0,0,7.664
"32","X43",1,1,3.873
"33","X43",1,1,5.041
"34","X43",0,0,2.553
"35","X43",0,0,6.281
"36","X43",0,0,10
"37","X43",0,0,1.903
"38","X43",1,0,3.284
"39","X43",0,1,2.028
"40","X43",0,1,0.553
"41","X43",0,0,6.81
"42","X43",0,0,0.89
"43","X43",1,1,5.666
"45","X43",1,1,4.089
"46","X43",1,1,2.648
"47","X43",1,1,4.471
"48","X43",1,1,2.272
"49","X43",1,1,7.305
"1","X44",0,1,1.702
"2","X44",0,1,2.685
"3","X44",0,1,3.089
"4","X44",1,1,3.857
"5","X44",1,1,4.463
"6","X44",0,1,1.004
"7","X44",0,0,4.738
"8","X44",1,1,4.491
"10","X44",0,0,7.712
"11","X44",0,0,2.406
"12","X44",0,0,5.184
"13","X44",1,1,5.071
"15","X44",0,0,3.679
"16","X44",1,0,5.616
"17","X44",0,0,8.342
"18","X44",0,0,3.312
"19","X44",1,1,2.193
"20","X44",1,1,8.32
"21","X44",0,0,5.382
"22","X44",1,1,1.352
"24","X44",1,1,2.408
"25","X44",0,0,17.048
"26","X44",1,1,0.555
"27","X44",1,0,3.656
"28","X44",1,1,2.896
"29","X44",1,1,1.168
"30","X44",1,0,1.552
"31","X44",1,1,15.014
"32","X44",0,0,3.567
"33","X44",0,0,3.251
"35","X44",1,1,4.5
"36","X44",1,1,2.522
"37","X44",1,0,2.368
"38","X44",1,0,2.56
"39","X44",1,1,3.99
"40","X44",0,1,0.739
"41","X44",1,1,7.789
"43","X44",0,0,3.214
"44","X44",0,0,2.496
"45","X44",0,0,3.056
"46","X44",0,1,2.92
"47","X44",1,1,3.029
"48","X44",1,1,11.528
"49","X44",1,1,9.435
"1","X45",0,0,2.902
"2","X45",0,1,5.193
"3","X45",1,1,3.821
"4","X45",1,0,3.599
"5","X45",1,1,5.495
"6","X45",1,1,0.801
"7","X45",1,1,3.323
"8","X45",0,0,5.838
"9","X45",1,0,2.553
"10","X45",0,1,13.143
"11","X45",1,1,2.042
"12","X45",1,1,5.928
"13","X45",1,0,4.442
"15","X45",0,0,1.756
"16","X45",0,0,5.434
"17","X45",0,0,11.886
"18","X45",0,0,4.973
"19","X45",1,1,2.801
"20","X45",1,0,4.056
"21","X45",0,0,7.119
"22","X45",0,1,2.328
"24","X45",0,0,13.384
"25","X45",0,0,14.934
"27","X45",0,0,4.697
"28","X45",1,1,2.331
"29","X45",0,1,1.616
"30","X45",0,1,7.936
"31","X45",0,0,9.465
"32","X45",0,1,3.257
"33","X45",0,0,4.158
"34","X45",0,0,2.427
"35","X45",1,1,3.519
"36","X45",1,1,4.671
"37","X45",1,0,1.517
"38","X45",0,1,4.181
"39","X45",1,0,3.269
"41","X45",0,0,5.085
"42","X45",0,1,0.569
"43","X45",0,1,2.466
"44","X45",0,1,2.46
"45","X45",1,1,2.803
"46","X45",0,0,6.128
"47","X45",1,1,7.815
"48","X45",0,0,2.575
"49","X45",0,1,2.277
"1","X46",1,1,3.792
"2","X46",0,0,5.134
"3","X46",0,0,2.686
"4","X46",1,1,3.232
"5","X46",1,1,7.818
"6","X46",1,1,0.84
"7","X46",1,0,7.272
"8","X46",0,0,5.239
"10","X46",1,1,4.072
"11","X46",1,1,2.6
"12","X46",0,0,7.408
"13","X46",1,1,4.525
"15","X46",0,0,1.989
"16","X46",1,0,4.181
"17","X46",0,0,9.286
"18","X46",0,0,3.44
"19","X46",1,1,2.715
"20","X46",0,0,5.576
"21","X46",0,0,7.837
"22","X46",0,0,1.712
"24","X46",0,0,12.776
"25","X46",1,1,11.812
"27","X46",1,1,3.576
"28","X46",0,1,8.284
"29","X46",0,0,1.632
"30","X46",0,0,5.792
"31","X46",1,1,8.504
"32","X46",0,0,5.417
"33","X46",0,0,4.997
"35","X46",1,1,2.551
"36","X46",1,1,6.488
"37","X46",1,1,1.788
"38","X46",0,1,2.456
"39","X46",0,0,3.512
"40","X46",0,1,1.265
"41","X46",0,0,5.93
"42","X46",0,0,0.748
"43","X46",0,0,1.67
"44","X46",0,1,2.361
"45","X46",1,1,3.764
"46","X46",1,1,2.048
"47","X46",1,1,9.096
"48","X46",1,0,3.831
"1","X47",0,0,3.79
"2","X47",0,1,8.399
"3","X47",1,1,2.112
"4","X47",1,1,5.142
"5","X47",0,0,4.604
"6","X47",0,1,0.672
"7","X47",1,1,3.546
"8","X47",1,0,3.789
"9","X47",1,1,2.516
"10","X47",0,0,9.144
"11","X47",1,0,3.483
"12","X47",1,0,2.528
"13","X47",0,0,5.241
"15","X47",1,1,2.914
"16","X47",0,0,6.748
"17","X47",1,1,13.987
"18","X47",1,0,2.376
"19","X47",1,0,1.997
"20","X47",1,1,12.543
"21","X47",1,0,5.216
"22","X47",0,0,3.08
"24","X47",1,0,4.528
"25","X47",1,1,11.58
"27","X47",0,0,5.664
"28","X47",1,1,9.22
"29","X47",1,0,1.216
"30","X47",0,0,5.92
"31","X47",0,0,9.457
"32","X47",0,0,4.487
"33","X47",1,1,3.915
"35","X47",0,0,2.154
"36","X47",0,0,10.4
"37","X47",0,0,1.787
"38","X47",0,1,3.083
"39","X47",1,1,3.249
"40","X47",1,1,1.659
"41","X47",1,1,13.488
"42","X47",1,1,0.844
"43","X47",1,1,4.328
"44","X47",0,1,2.829
"45","X47",0,0,2.227
"46","X47",0,1,4.04
"48","X47",0,0,3.615
"49","X47",0,0,3.581
"1","X48",1,0,2.498
"2","X48",1,1,2.901
"3","X48",1,1,2.32
"4","X48",0,1,3.687
"5","X48",0,0,3.988
"6","X48",0,0,0.785
"7","X48",0,0,5.549
"8","X48",0,1,3.558
"9","X48",1,1,3.112
"10","X48",0,1,5.208
"11","X48",1,1,1.88
"12","X48",1,0,6.288
"13","X48",0,0,5.679
"15","X48",1,1,4.221
"16","X48",0,0,12.936
"17","X48",1,1,8.293
"18","X48",1,0,6.792
"19","X48",0,0,3.092
"20","X48",1,1,7.729
"21","X48",0,0,12.602
"22","X48",1,1,1.832
"24","X48",1,1,2.344
"25","X48",1,1,19.468
"27","X48",0,0,5.551
"28","X48",1,1,3.237
"29","X48",1,1,1.056
"30","X48",1,0,5.671
"31","X48",0,0,8.593
"32","X48",0,0,4.007
"33","X48",0,0,4.013
"34","X48",0,1,1.136
"35","X48",0,0,2.37
"36","X48",0,0,4.408
"37","X48",1,0,1.608
"38","X48",0,0,5.912
"39","X48",1,1,2.714
"40","X48",0,1,0.668
"41","X48",1,1,4.574
"42","X48",1,1,0.592
"43","X48",1,0,2.853
"44","X48",1,0,2.13
"45","X48",0,1,2.083
"46","X48",0,0,2.927
"47","X48",1,1,10.349
"48","X48",0,1,6
"49","X48",0,1,6.704
"1","X49",1,1,1.92
"2","X49",1,1,2.1
"3","X49",1,1,0.982
"4","X49",1,1,4.608
"5","X49",0,1,7.683
"6","X49",0,1,0.842
"7","X49",0,0,9.732
"8","X49",0,0,2.17
"9","X49",0,0,1.664
"10","X49",1,1,3.088
"12","X49",1,1,4.813
"13","X49",0,1,4.075
"15","X49",1,1,3.488
"16","X49",0,1,3.676
"17","X49",1,0,8.466
"18","X49",1,1,2.802
"19","X49",1,1,2.131
"20","X49",0,0,5.084
"21","X49",0,0,4.124
"22","X49",1,0,1.919
"24","X49",1,1,6.304
"25","X49",0,0,14.784
"27","X49",0,0,5.833
"28","X49",0,0,5.63
"29","X49",1,0,1.137
"30","X49",0,0,4.144
"31","X49",0,0,9.464
"32","X49",0,0,2.76
"33","X49",0,0,3.464
"34","X49",1,1,1.187
"35","X49",1,1,3.712
"36","X49",0,1,7.071
"37","X49",1,1,1.092
"38","X49",1,0,3.785
"39","X49",0,0,2.209
"40","X49",0,0,0.838
"41","X49",1,1,9.178
"43","X49",1,0,1.939
"44","X49",0,0,2.56
"45","X49",0,0,2.847
"46","X49",0,0,3.441
"47","X49",1,1,7.604
"48","X49",0,1,8.912
"1","X50",0,0,1.595
"2","X50",1,0,2.056
"3","X50",0,1,0.606
"4","X50",0,0,2.826
"5","X50",0,1,11.686
"6","X50",0,1,0.851
"7","X50",1,1,4.348
"8","X50",0,1,2.969
"10","X50",1,1,4.968
"11","X50",0,0,1.72
"12","X50",1,0,3.393
"13","X50",1,1,3.903
"15","X50",1,0,2.927
"16","X50",1,1,2.12
"17","X50",0,0,7.176
"18","X50",1,0,5.013
"19","X50",1,0,2.298
"20","X50",1,1,5.048
"21","X50",0,0,3.801
"22","X50",0,1,2.288
"24","X50",0,1,4.962
"25","X50",1,1,27.874
"26","X50",0,1,0.82
"27","X50",0,0,5.335
"28","X50",1,1,4.166
"29","X50",1,0,1.12
"30","X50",1,1,4.432
"31","X50",0,1,19.921
"32","X50",1,1,3.6
"33","X50",1,0,3.097
"34","X50",1,1,2.182
"35","X50",0,0,2.613
"36","X50",1,0,7.33
"37","X50",0,1,3.677
"38","X50",1,0,4.413
"39","X50",1,0,2.347
"40","X50",1,1,2.768
"41","X50",0,0,5.623
"42","X50",1,1,0.859
"43","X50",0,1,2.683
"44","X50",1,1,1.507
"45","X50",0,1,2.817
"46","X50",0,0,6.336
"47","X50",1,1,5.687
"48","X50",0,0,2.12
